Folder: Stress_Strain_Analysis_Tools/data/processed_data_files/tensile (part 10)

File: 0.254_hd_dimension_typeiv_090_r(7).dat
MTS793|BTW|ENU|1|2|.|/|:|1|0|0|A

Data Header:			0.254_hd_dimension_typeiv_090_r0			Time:	20.0183	s	4/14/2019 12:35:48 AM
Data Acquisition:	Timed
Station Name:	ft40.cfg
Test File Name:	monotonic_0.2540_typeiv_hd_090_dimension.tst
Displacement	Force	Running Time
mm	N	s
-40.0399	-158.896	0.0234375
-40.0405	-155.748	0.0917969
-40.03558	-153.078	0.160156
-40.029	-146.848	0.228516
-40.02441	-140.153	0.296875
-40.0178	-141.896	0.365234
-40.0126	-140.511	0.433594
-40.0062	-137.344	0.501953
-40	-133.557	0.5703125
-39.995	-134.845	0.638672
-39.9888	-129.043	0.707031
-39.9835	-123.65	0.775391
-39.9788	-117.7906	0.84375
-39.9731	-112.056	0.912109
-39.9664	-105.203	0.980469
-39.9615	-106.712	1.04883
-39.95454	-105.433	1.11719
-39.9496	-102.306	1.18555
-39.9448	-99.2961	1.25391
-39.9387	-98.53141	1.32227
-39.9337	-93.0192	1.390625
-39.9276	-89.768	1.45898
-39.921	-84.93261	1.52734
-39.9162	-77.5251	1.5957
-39.9085	-73.1236	1.66406
-39.9042	-70.50489	1.73242
-39.8985	-68.3107	1.80078
-39.89259	-65.6904	1.86914
-39.8872	-63.5827	1.9375
-39.8817	-61.5083	2.00586
-39.8748	-57.53672	2.07422
-39.8714	-56.7916	2.14258
-39.8646	-50.97	2.21094
-39.8577	-45.189	2.2793
-39.8526	-39.516	2.34766
-39.8473	-38.1238	2.41602
-39.84	-33.3347	2.484375
-39.8354	-30.1003	2.55273
-39.8311	-28.5151	2.62109
-39.8244	-28.8506	2.68945
-39.8188	-25.0421	2.75781
-39.8133	-22.8701	2.82617
-39.807	-18.0834	2.89453
-39.802	-12.2774	2.96289
-39.7966	-5.52338	3.03125
-39.7907	-5.32348	3.09961
-39.7837	-1.99446	3.16797
-39.7792	5.37447	3.23633
-39.7728	5.97833	3.30469
-39.7676	5.76609	3.37305
-39.7617	10.1326	3.44141
-39.7547	11.4755	3.50977
-39.7504	13.752	3.578125
-39.7447	20.8919	3.64648
-39.7395	26.0118	3.71484
-39.7326	26.4569	3.7832
-39.7284	31.9255	3.85156
-39.722	40.0048	3.91992
-39.7154	40.7313	3.98828
-39.7103	41.1848	4.05664
-39.7059	45.2426	4.125
-39.6978	45.3095	4.19336
-39.6931	48.924	4.26172
-39.6886	54.9512	4.33008
-39.682	58.8121	4.39844
-39.67543	59.5377	4.4668
-39.6714	64.4301	4.53516
-39.6656	73.9142	4.60352
-39.6592	75.9771	4.671875
-39.6528	75.2271	4.74023
-39.6483	79.9886	4.80859
-39.642	81.3926	4.87695
-39.6359	82.1333	4.94531
-39.63018	87.4312	5.01367
-39.6257	91.318	5.08203
-39.6189	93.381	5.15039
-39.61277	96.2051	5.21875
-39.60775	107.26	5.28711
-39.6028	108.974	5.35547
-39.5968	111.353	5.42383
-39.5913	114.358	5.49219
-39.5855	114.726	5.56055
-39.5797	118.481	5.62891
-39.5743	118.686	5.69727
-39.5673	123.804	5.765625
-39.5618	125.673	5.83398
-39.5566	130.2784	5.90234
-39.55122	138.392	5.9707
-39.5445	140.314	6.03906
-39.5395	142.147	6.10742
-39.5337	147.22	6.17578
-39.5289	148.241	6.24414
-39.5236	152.411	6.3125
-39.5177	154.318	6.38086
-39.5119	154.812	6.44922
-39.50489	155.762	6.51758
-39.5001	162.297	6.58594
-39.4943	167.095	6.6543
-39.4894	171.892	6.72266
-39.4834	176.722	6.79102
-39.4778	179.451	6.859375
-39.4715	181.8002	6.92773
-39.4651	186.181	6.99609
-39.4596	186.82	7.06445
-39.4539	187.1252	7.13281
-39.4481	188.188	7.20117
-39.4426	190.594	7.26953
-39.4366	198.062	7.33789
-39.4316	201.277	7.40625
-39.426	206.802	7.47461
-39.41983	214.015	7.54297
-39.4143	213.889	7.61133
-39.4094	217.536	7.67969
-39.4027	220.218	7.74805
-39.3976	218.523	7.81641
-39.3922	218.342	7.88477
-39.3864	223.164	7.953125
-39.381	229.078	8.02148
-39.3737	231.483	8.08984
-39.3696	237.9203	8.1582
-39.3643	243.662	8.22656
-39.3583	245.974	8.29492
-39.352	251.126	8.36328
-39.3461	253.6	8.43164
-39.3405	251.451	8.5
-39.3346	248.5312	8.56836
-39.3289	253.814	8.63672
-39.3251	259.284	8.70508
-39.3171	260.891	8.77344
-39.3119	266.7413	8.8418
-39.3062	273.055	8.91016
-39.301	275.9527	8.97852
-39.2953	279.829	9.046875
-39.2899	284	9.11523
-39.28392	283.584	9.18359
-39.2766	282.743	9.25195
-39.2723	285.589	9.32031
-39.2664	289.643	9.38867
-39.2609	289.455	9.45703
-39.2551	294.395	9.52539
-39.249	301.991	9.59375
-39.2437	304.866	9.66211
-39.2375	310.646	9.73047
-39.2326	314.153	9.79883
-39.2277	314.044	9.86719
-39.221	312.063	9.93555
-39.2153	315.019	10.0039
-39.2098	317.979	10.0723
-39.2048	317.018	10.1406
-39.198	323.407	10.209
-39.1935	328.403	10.2773
-39.1865	332.798	10.3457
-39.1812	337.185	10.4141
-39.1742	341.763	10.4824
-39.17	342.573	10.5508
-39.164	340.672	10.6191
-39.158	344.981	10.6875
-39.1529	346.219	10.7559
-39.1466	345.893	10.8242
-39.1416	349.277	10.8926
-39.1356	353.09	10.9609
-39.1291	360.151	11.0293
-39.1247	363.247	11.0977
-39.1197	368.829	11.166
-39.1123	368.703	11.2344
-39.1067	369.173	11.3027
-39.1008	371.868	11.3711
-39.0948	371.934	11.4395
-39.0904	372.218	11.5078
-39.0839	375.024	11.5762
-39.0781	375.748	11.6445
-39.0729	382.231	11.7129
-39.0674	389.0434	11.78125
-39.0612	392.288	11.8496
-39.0555	392.372	11.918
-39.0501	395.202	11.9863
-39.0449	397.898	12.0547
-39.0393	397.565	12.123
-39.033	397.66	12.1914
-39.027	399.597	12.2598
-39.0223	398.762	12.3281
-39.0155	403.938	12.3965
-39.0098	410.024	12.4648
-39.0044	413.137	12.5332
-38.9992	414.0079	12.6016
-38.9927	416.789	12.6699
-38.9868	421.895	12.7383
-38.9817	419.395	12.8066
-38.9762	418.275	12.875
-38.9699	421.694	12.9434
-38.96542	418.533	13.0117
-38.9584	422.436	13.0801
-38.9544	428.206	13.1484
-38.9477	429.507	13.2168
-38.94096	429.775	13.2852
-38.9353	434.991	13.3535
-38.9305	439.316	13.4219
-38.9251	436.815	13.4902
-38.919	436.055	13.5586
-38.913	437.589	13.627
-38.9068	436.519	13.6953
-38.90147	437.107	13.7637
-38.8968	441.4	13.832
-38.8908	441.728	13.9004
-38.8851	441.266	13.96875
-38.879	444.61	14.0371
-38.8732	450.053	14.1055
-38.8679	449.046	14.1738
-38.8613	447.995	14.2422
-38.8562	449.6908	14.3105
-38.8509	446.26	14.3789
-38.8442	447.2377	14.4473
-38.8393	448.9682	14.5156
-38.8332	450.332	14.584
-38.8268	447.704	14.6523
-38.8223	453.24	14.7207
-38.8166	458.299	14.7891
-38.811	455.57	14.8574
-38.8049	456.052	14.9258
-38.7995	453.883	14.9941
-38.7938	452.998	15.0625
-38.7889	452.499	15.1309
-38.78207	454.48	15.1992
-38.777	452.358	15.2676
-38.7703	450.207	15.3359
-38.7655	454.495	15.4043
-38.7595	458.846	15.4727
-38.7547	457.515	15.541
-38.7478	456.063	15.6094
-38.7425	455.313	15.6777
-38.7375	454.138	15.7461
-38.73069	452.899	15.8145
-38.7252	450.794	15.8828
-38.7198	450.34	15.9512
-38.7145	448.048	16.0195
-38.7081	450.459	16.0879
-38.7031	451.953	16.15625
-38.6969	453.746	16.2246
-38.6901	454.587	16.293
-38.6846	453.224	16.3613
-38.6802	451.641	16.4297
-38.6743	450.947	16.498
-38.6685	447.68	16.5664
-38.6625	444.006	16.6348
-38.65662	442.849	16.7031
-38.6509	446.369	16.7715
-38.6462	446.0614	16.8398
-38.6399	446.994	16.9082
-38.63493	449.062	16.9766
-38.6297	448.145	17.0449
-38.6224	448.2171	17.1133
-38.61602	448.152	17.1816
-38.6114	443.588	17.25
-38.6058	439.54	17.3184
-38.5994	438.632	17.3867
-38.5936	440.385	17.4551
-38.5891	441.002	17.5234
-38.5828	440.909	17.5918
-38.5764	444.295	17.6602
-38.5717	445.395	17.7285
-38.5658	446.041	17.7969
-38.5597	445.357	17.8652
-38.5542	441.696	17.9336
-38.5496	436.402	18.002
-38.5431	435.966	18.0703
-38.5381	438.499	18.1387
-38.5318	434.4	18.207
-38.5267	437.721	18.2754
-38.5213	439.267	18.34375
-38.5151	439.143	18.4121
-38.5083	441.313	18.4805
-38.50288	444.142	18.5488
-38.4971	440.126	18.6172
-38.49231	433.326	18.6855
-38.4859	435.391	18.7539
-38.48	435.979	18.8223
-38.4745	431.206	18.8906
-38.4687	433.608	18.959
-38.4623	436.614	19.0273
-38.4578	437.68	19.0957
-38.452	438.921	19.1641
[...]
-37.76902	431.171	27.3477
-37.7659	425.295	27.3965
-37.7622	423.182	27.4453
-37.7587	429.591	27.4941
-37.7555	432.597	27.543
-37.749	429.328	27.5918
-37.7454	423.22	27.6406
-37.7412	427.653	27.6895
-37.73801	431.719	27.7383
-37.7342	429.506	27.7871
-37.7299	423.209	27.8359
-37.7257	421.647	27.8848
-37.72007	427.211	27.9336
-37.7171	431.746	27.9824
-37.7128	429.007	28.03125
-37.7085	424.158	28.0801
-37.7054	425.828	28.1289
-37.7009	428.22	28.1777
-37.6961	430.957	28.2266
-37.6924	427.578	28.2754
-37.6882	423.59	28.3242
-37.6841	429.919	28.373
-37.6818	432.255	28.4219
-37.67606	430.805	28.4707
-37.6728	423.304	28.5195
-37.6684	421.597	28.5684
-37.6643	426.935	28.6172
-37.6602	430.68	28.666
-37.6555	426.652	28.7148
-37.6519	424.259	28.7637
-37.6485	426.074	28.8125
-37.6445	428.368	28.8613
-37.6407	428.942	28.9102
-37.6355	424.552	28.959
-37.6314	424.294	29.0078
-37.6274	427.865	29.0566
-37.6234	431.24	29.1055
-37.6194	428.767	29.1543
-37.6147	422.463	29.2031
-37.61113	421.4527	29.252
-37.6072	427.095	29.3008
-37.6037	429.9473	29.3496
-37.59848	424.6524	29.3984
-37.5952	422.1738	29.4473
-37.5914	426.2644	29.4961
-37.5871	427.671	29.5449
-37.582	424.2106	29.59375
-37.5785	421.125	29.6426
-37.5741	423.742	29.6914
-37.5703	426.27	29.7402
-37.5675	428.623	29.7891
-37.5624	425.632	29.8379
-37.5575	421.528	29.8867
-37.5541	423.332	29.9355
-37.5505	426.916	29.9844
-37.5458	426.595	30.0332
-37.5418	424.3	30.082
-37.53738	424.089	30.1309
-37.5347	427.304	30.1797
-37.5301	428.052	30.2285
-37.526	422.4664	30.2773
-37.5216	423.202	30.3262
-37.51812	423.586	30.375
-37.5136	427.044	30.4238
-37.50988	428.715	30.4727
-37.5054	424.4061	30.5215
-37.5016	424.061	30.5703
-37.497	424.997	30.6191
-37.4928	428.216	30.668
-37.4883	425.147	30.7168
-37.4855	421.995	30.7656
-37.4806	425.4	30.8145
-37.4766	427.793	30.8633
-37.4722	424.779	30.9121
-37.4695	419.707	30.9609
-37.4642	420.398	31.0098
-37.4606	423.361	31.0586
-37.4574	425.611	31.1074
-37.4528	423.638	31.15625
-37.4487	423.2236	31.2051
-37.44482	424.179	31.2539
-37.441	426.12	31.3027
-37.4371	424.229	31.3516
-37.4317	419.07	31.4004
-37.4286	420.435	31.4492
-37.4239	424.427	31.498
-37.4207	426.551	31.5469
-37.4165	423.766	31.5957
-37.4123	420.062	31.6445
-37.4083	420.622	31.6934
-37.4038	424.464	31.7422
-37.4	424.19	31.791
-37.3958	419.775	31.8398
-37.3926	419.4361	31.8887
-37.3884	421.884	31.9375
-37.3832	425.527	31.9863
-37.3791	422.587	32.0352
-37.3758	417.859	32.084
-37.3707	419.515	32.1328
-37.36718	424.898	32.1816
-37.3636	425.135	32.2305
-37.3594	420.582	32.2793
-37.3539	416.521	32.3281
-37.3499	417.749	32.377
-37.3462	423.629	32.4258
-37.3424	422.542	32.4746
-37.3389	415.539	32.5234
-37.3349	417.289	32.5723
-37.3302	421.88	32.6211
-37.3271	424.879	32.6699
-37.3216	417.775	32.71875
-37.3185	414.744	32.7676
-37.3144	416.284	32.8164
-37.3104	421.501	32.8652
-37.30566	420.724	32.9141
-37.30254	415.163	32.9629
-37.2982	410.416	33.0117
-37.2943	412.623	33.0605
-37.2893	415.538	33.1094
-37.2846	410.857	33.1582
-37.2817	386.694	33.207
-37.2755	-47.361	33.2559
-37.2731	-37.9935	33.3047
-37.2687	-36.6124	33.3535
-37.2644	-43.5487	33.4023
-37.2619	-47.1184	33.4512
-37.2574	-43.1653	33.5
-37.2529	-37.5332	33.5488
-37.2481	-37.5169	33.5977
-37.2453	-44.2971	33.6465
-37.2401	-44.5854	33.6953
-37.2368	-41.2578	33.7441
-37.2335	-39.968	33.793
-37.2279	-43.5868	33.8418
-37.224	-46.3533	33.8906
-37.2209	-43.9117	33.9395
-37.21656	-37.9153	33.9883
-37.21244	-37.5064	34.0371
-37.208	-44.4956	34.0859
-37.2039	-46.9244	34.1348
-37.1992	-42.3978	34.1836
-37.1958	-35.8961	34.2324
-37.1912	-40.3054	34.28125
-37.187	-44.7376	34.3301
-37.1837	-43.1807	34.3789
-37.1822	-42.5869	34.3984

File: 0.254_hd_dimension_typeiv_090_r(8).dat
MTS793|BTW|ENU|1|2|.|/|:|1|0|0|A

Data Header:			0.254_hd_dimension_typeiv_090_r0			Time:	20.0181	s	4/14/2019 12:37:12 AM
Data Acquisition:	Timed
Station Name:	ft40.cfg
Test File Name:	monotonic_0.2540_typeiv_hd_090_dimension.tst
Displacement	Force	Running Time
mm	N	s
-40.0405	-276.887	0.0227051
-40.0411	-273.852	0.0910645
-40.0335	-273.5676	0.159424
-40.0285	-269.805	0.2277832
-40.023	-260.711	0.296143
-40.0174	-260.721	0.364502
-40.0113	-258.372	0.432861
-40.0066	-255.716	0.5012207
-40.00045	-254.876	0.56958
-39.9955	-251.857	0.637939
-39.9895	-247.762	0.706299
-39.9832	-244.471	0.7746582
-39.9778	-242.178	0.843018
-39.9721	-233.979	0.911377
-39.966	-227.615	0.979736
-39.9599	-225.564	1.0481
-39.9549	-222.573	1.11646
-39.9499	-220.363	1.18481
-39.9434	-219.242	1.25317
-39.9379	-216.968	1.32153
-39.9312	-212.16	1.38989
-39.9264	-210.149	1.458252
-39.921	-208.166	1.52661
-39.9153	-200.6834	1.59497
-39.90905	-195.904	1.66333
-39.9037	-192.068	1.73169
-39.8964	-187.675	1.80005
-39.8922	-186.859	1.86841
-39.8872	-184.606	1.93677
-39.8798	-180.277	2.005127
-39.8754	-179.113	2.07349
-39.8693	-178.537	2.14185
-39.8649	-174.655	2.21021
-39.8581	-166.64	2.27856
-39.8531	-162.339	2.34692
-39.8471	-159.9967	2.41528
-39.842	-154.148	2.48364
-39.8351	-152.923	2.552002
-39.82967	-149.002	2.62036
-39.8251	-145.924	2.68872
-39.8177	-144.2159	2.75708
-39.8124	-145.81	2.82544
-39.8074	-142.251	2.8938
-39.801	-133.225	2.96216
-39.7956	-130.642	3.03052
-39.7892	-124.168	3.098877
-39.78455	-118.678	3.16724
-39.7784	-114.899	3.2356
-39.7722	-113.927	3.30396
-39.7674	-111.185	3.37231
-39.7614	-108.992	3.44067
-39.7551	-111.112	3.50903
-39.7499	-106.192	3.57739
-39.7446	-99.5511	3.645752
-39.7383	-97.6097	3.71411
-39.7333	-94.4305	3.78247
-39.7264	-86.1601	3.85083
-39.72131	-82.3039	3.91919
-39.7154	-79.127	3.98755
-39.7098	-74.83477	4.05591
-39.7036	-73.6356	4.12427
-39.6994	-76.561	4.192627
-39.6931	-73.1357	4.26099
-39.6869	-66.7633	4.32935
-39.6813	-65.1584	4.39771
-39.67577	-60.1039	4.46606
-39.6706	-53.08535	4.53442
-39.6641	-48.9407	4.60278
-39.6599	-45.9304	4.67114
-39.6539	-41.3987	4.739502
-39.6482	-41.7271	4.80786
-39.64254	-41.8355	4.87622
-39.6355	-39.4742	4.94458
-39.6307	-34.2574	5.01294
-39.6232	-33.1425	5.0813
-39.61797	-29.7564	5.14966
-39.6136	-20.22784	5.21802
-39.6078	-18.075	5.286377
-39.6025	-12.6716	5.35474
-39.5958	-7.63535	5.4231
-39.5902	-7.10529	5.49146
-39.5839	-7.95078	5.55981
-39.5797	-4.34814	5.62817
-39.5723	-1.61531	5.69653
-39.5683	-0.438562	5.76489
-39.5617	4.17469	5.833252
-39.55621	9.14325	5.90161
-39.5519	14.2406	5.96997
-39.5447	20.6539	6.03833
-39.5399	24.7082	6.10669
-39.534	27.0916	6.17505
-39.528	26.263	6.24341
-39.5226	30.4528	6.31177
-39.517	31.4016	6.380127
-39.511	35.1548	6.44849
-39.5051	37.41748	6.51685
-39.5006	42.6712	6.58521
-39.4934	47.1247	6.65356
-39.48772	52.9711	6.72192
-39.4829	57.48938	6.79028
-39.4771	59.4058	6.85864
-39.472	61.9066	6.927002
-39.4652	66.0994	6.99536
-39.45948	67.056	7.06372
-39.4534	68.3327	7.13208
-39.4483	70.422	7.20044
-39.4436	72.6084	7.2688
-39.4372	79.7697	7.33716
-39.4303	83.9943	7.40552
-39.4263	89.1671	7.473877
-39.42	90.4935	7.54224
-39.414	95.1981	7.6106
-39.4084	99.9762	7.67896
-39.4024	100.635	7.74731
-39.3982	101.345	7.81567
-39.39127	104.339	7.88403
-39.3864	103.399	7.95239
-39.3812	110.864	8.020752
-39.3748	114.995	8.08911
-39.3687	120.492	8.15747
-39.3628	121.4257	8.22583
-39.3576	128.146	8.29419
-39.35141	131.665	8.36255
-39.3461	131.228	8.43091
-39.3394	134.145	8.49927
-39.3334	138.822	8.567627
-39.32864	138.0639	8.63599
-39.3223	141.478	8.70435
-39.3186	146.852	8.77271
-39.3109	149.407	8.84106
-39.3056	150.327	8.90942
-39.301	159.3	8.97778
-39.29446	166.099	9.04614
-39.289	164.351	9.114502
-39.2831	167.186	9.18286
-39.27755	171.157	9.25122
-39.2719	169.699	9.31958
-39.26601	172.411	9.38794
-39.2603	178.601	9.4563
-39.2543	179.754	9.52466
-39.2494	181.338	9.59302
-39.2433	189.273	9.661377
-39.2373	196.65	9.72974
-39.2319	197.831	9.7981
-39.2257	199.714	9.86646
-39.2197	200.685	9.93481
-39.2147	202.554	10.0032
-39.2085	205.104	10.0715
-39.203	207.355	10.1399
-39.1978	209.084	10.2083
-39.191	212.189	10.2766
-39.1857	220.707	10.345
-39.18	226.197	10.41333
-39.1746	227.269	10.4817
-39.1688	231.882	10.55
-39.1633	233.782	10.6184
-39.1582	234.578	10.6868
-39.1518	236.603	10.7551
-39.1469	238.298	10.8235
-39.1407	238.578	10.8918
-39.1355	240.1	10.9602
-39.1298	248.828	11.0286
-39.1237	253.746	11.0969
-39.1172	257.518	11.1653
-39.1132	261.891	11.2336
-39.1069	264.168	11.302
-39.1006	267.62	11.3704
-39.0947	266.607	11.4387
-39.0894	269.1221	11.50708
-39.0846	268.079	11.5754
-39.0772	271.22	11.6438
-39.073	277.586	11.7122
-39.0666	282.021	11.7805
-39.0598	285.392	11.8489
-39.0544	288.241	11.9172
-39.0502	292.6651	11.9856
-39.0442	296.736	12.054
-39.038	296.68	12.1223
-39.0333	296.139	12.1907
-39.02702	294.586	12.259
-39.0218	298.017	12.3274
-39.0152	303.958	12.3958
-39.0096	308.177	12.4641
-39.0039	312.461	12.5325
-38.9982	316.238	12.60083
-38.9939	319.267	12.6692
-38.9865	323.912	12.7375
-38.9802	324.05	12.8059
-38.9764	323.5647	12.8743
-38.9699	323.129	12.9426
-38.9629	327.195	13.011
-38.9598	330.172	13.0793
-38.953	331.422	13.1477
-38.9465	337.068	13.2161
-38.9421	340.824	13.2844
-38.936	343.883	13.3528
-38.9301	348.097	13.4211
-38.9238	350.039	13.4895
-38.9187	347.654	13.5579
-38.9137	348.379	13.6262
-38.9074	351.262	13.69458
-38.9018	353.038	13.7629
-38.8958	355.447	13.8313
-38.8911	359.687	13.8997
-38.8847	363.479	13.968
-38.8785	367.6813	14.0364
-38.8736	373.019	14.1047
-38.8672	375.521	14.1731
-38.86174	371.117	14.2415
-38.8554	371.06	14.3098
-38.8498	376.733	14.3782
-38.8447	375.666	14.4465
-38.83881	376.282	14.5149
-38.8334	379.161	14.5833
-38.8275	383.284	14.6516
-38.8217	386.809	14.72
-38.8159	392.363	14.78833
-38.8113	395.7403	14.8567
-38.8053	393.587	14.925
-38.7991	393.435	14.9934
-38.7933	400.064	15.0618
-38.7876	398.318	15.1301
-38.7818	395.392	15.1985
-38.7754	398.8324	15.2668
-38.7698	401.382	15.3352
-38.7644	404.941	15.4036
-38.7594	411.395	15.4719
-38.7529	412.919	15.5403
-38.7479	412.563	15.6086
-38.7418	412.595	15.677
-38.7375	416.985	15.7454
-38.7305	416.479	15.8137
-38.725	414.198	15.88208
-38.7203	417.884	15.9504
-38.7137	416.168	16.0188
-38.7086	418.095	16.0872
-38.7026	423.337	16.1555
-38.69651	425.698	16.2239
-38.6912	425.944	16.2922
-38.6851	429.623	16.3606
-38.6794	433.058	16.429
-38.6741	431.77	16.4973
-38.66803	428.291	16.5657
-38.664	429.437	16.634
-38.6569	430.299	16.7024
-38.6515	433.138	16.7708
-38.6444	435.101	16.8391
-38.6393	436.9	16.9075
-38.6339	438.498	16.97583
-38.628	441.511	17.0442
-38.6217	445.219	17.1125
-38.6164	443.186	17.1809
-38.6118	440.071	17.2493
-38.6053	440.277	17.3176
-38.5989	440.536	17.386
-38.5945	441.123	17.4543
-38.5892	442.459	17.5227
-38.5823	443.563	17.5911
-38.5772	444.088	17.6594
-38.5708	447.864	17.7278
-38.5659	450.938	17.7961
-38.5604	451.171	17.8645
-38.5545	451.196	17.9329
-38.5477	447.627	18.0012
-38.5415	447.638	18.06958
-38.5373	445.762	18.1379
-38.5324	446.333	18.2063
-38.5255	447.004	18.2747
-38.52055	447.427	18.343
-38.5143	453.584	18.4114
-38.5079	453.567	18.4797
-38.5033	454.944	18.5481
-38.4974	455.579	18.6165
-38.491	452.9093	18.6848
-38.4844	452.089	18.7532
-38.4799	451.123	18.8215
-38.4734	449.253	18.8899
-38.468	446.103	18.9583
[...]
-37.8546	431.638	26.3215
-37.8519	434.939	26.3704
-37.8472	436.497	26.4192
-37.843	431.503	26.468
-37.8393	426.657	26.5168
-37.834	431.748	26.5657
-37.831	435.167	26.6145
-37.8268	434.588	26.66333
-37.82235	430.942	26.7122
-37.8179	431.93	26.761
-37.8144	434.3	26.8098
-37.80991	434.171	26.8586
-37.8063	430.782	26.9075
-37.8018	427.424	26.9563
-37.7977	432.812	27.0051
-37.7944	436.9772	27.054
-37.7907	435.867	27.1028
-37.7858	429.317	27.1516
-37.7824	427.416	27.2004
-37.7781	431.553	27.2493
-37.7742	434.793	27.2981
-37.7702	431.897	27.3469
-37.7652	427.8	27.3958
-37.7619	430.727	27.44458
-37.7575	433.337	27.4934
-37.75259	432.283	27.5422
-37.7485	428.779	27.5911
-37.7455	426.472	27.6399
-37.7416	432.0336	27.6887
-37.7377	436.599	27.7375
-37.7332	432.687	27.7864
-37.7286	429.79	27.8352
-37.7259	426.58	27.884
-37.7205	433.922	27.9329
-37.7174	434.364	27.9817
-37.7127	429.974	28.0305
-37.7082	425.48	28.0793
-37.7043	429.1196	28.1282
-37.7014	435.0387	28.177
-37.6966	432.998	28.22583
-37.6918	424.664	28.2747
-37.6896	424.836	28.3235
-37.6849	432.713	28.3723
-37.6803	436.491	28.4211
-37.6755	432.523	28.47
-37.67281	427.004	28.5188
-37.668	427.211	28.5676
-37.6625	434.991	28.6165
-37.6593	434.041	28.6653
-37.6556	427.036	28.7141
-37.6521	425.902	28.7629
-37.6474	430.554	28.8118
-37.6432	435.443	28.8606
-37.6388	429.953	28.9094
-37.6366	424.15	28.9583
-37.6322	425.2717	29.00708
-37.62775	431.866	29.0559
-37.6226	434.491	29.1047
-37.6185	430.3902	29.1536
-37.614	426.409	29.2024
-37.6111	429.65	29.2512
-37.60725	434.539	29.3
-37.6042	432.841	29.3489
-37.5998	427.168	29.3977
-37.5954	424.957	29.4465
-37.5911	431.153	29.4954
-37.5862	434.453	29.5442
-37.5831	429.904	29.593
-37.5784	424.451	29.6418
-37.5746	426.039	29.6907
-37.5701	430.28	29.7395
-37.5671	431.157	29.78833
-37.5618	428.245	29.8372
-37.558	426.3699	29.886
-37.5537	429.826	29.9348
-37.5509	431.804	29.9836
-37.54594	428.855	30.0325
-37.5406	425.902	30.0813
-37.53751	425.964	30.1301
-37.5338	430.4476	30.179
-37.5293	432.003	30.2278
-37.5256	428.244	30.2766
-37.5215	423.707	30.3254
-37.5175	426.587	30.3743
-37.51368	428.946	30.4231
-37.5086	427.69	30.4719
-37.5051	425.812	30.5208
-37.5005	426.287	30.56958
-37.4968	429.711	30.6184
-37.493	430.626	30.6672
-37.4895	425.6322	30.7161
-37.4846	423.618	30.7649
-37.4807	424.927	30.8137
-37.477	428.185	30.8625
-37.4724	427.908	30.9114
-37.4685	425.127	30.9602
-37.4649	423.537	31.009
-37.4611	424.674	31.0579
-37.4559	426.611	31.1067
-37.4529	423.687	31.1555
-37.4482	422.864	31.2043
-37.4442	427.304	31.2532
-37.4408	428.166	31.302
-37.4364	427.163	31.35083
-37.4317	422.0368	31.3997
-37.42836	421.464	31.4485
-37.4233	424.474	31.4973
-37.4189	427.153	31.5461
-37.4161	423.14	31.595
-37.411	421.63	31.6438
-37.4081	422.846	31.6926
-37.40366	424.354	31.7415
-37.3985	422.502	31.7903
-37.3948	419.029	31.8391
-37.3908	419.4006	31.8879
-37.3865	425.713	31.9368
-37.38353	426.646	31.9856
-37.3786	420.974	32.0344
-37.3744	413.997	32.0833
-37.3703	415.168	32.13208
-37.3666	415.899	32.1809
-37.363	411.036	32.2297
-37.3581	365.9	32.2786
-37.3528	-44.916	32.3274
-37.3506	-40.1958	32.3762
-37.3459	-40.5234	32.425
-37.3435	-43.1817	32.4739
-37.3391	-46.6934	32.5227
-37.3338	-45.7051	32.5715
-37.33	-39.01667	32.6204
-37.3274	-37.6297	32.6692
-37.3208	-41.166	32.718
-37.317	-46.0783	32.7668
-37.31295	-44.2672	32.8157
-37.30957	-37.4588	32.8645
-37.3055	-40.931	32.91333
-37.302	-45.51	32.9622
-37.2966	-45.2656	33.011
-37.2927	-40.3812	33.0598
-37.2888	-38.966	33.1086
-37.2849	-45.0333	33.1575
-37.2796	-48.357	33.2063
-37.2774	-45.02457	33.2551
-37.2737	-38.2606	33.304
-37.2686	-37.6518	33.3528
-37.26683	-43.8789	33.3723