Folder: Stress_Strain_Analysis_Tools/data/processed_data_files/tensile (part 47)

File: 0.254_solid_uprint_typei_4545_r(4).dat
Data Header:			0.254_solid_uprint_typei_4545_r0			Time:	20.0178	s	4/14/2019 4:25:27 AM
Data Acquisition:	Timed
Station Name:	ft40.cfg
Test File Name:	monotonic_0.2540_typei_solid_4545_uprint.tst
Displacement	Force	Running Time
mm	N	s
9.95773	-120.762	0.0224609
9.96034	-110.791	0.0908203
9.9661	-105.234	0.15918
9.9728	-98.50515	0.227539
9.9779	-88.7231	0.295898
9.98386	-86.8907	0.364258
9.98883	-90.9285	0.432617
9.99485	-92.654	0.500977
10.0013	-93.9188	0.569336
10.0063	-95.4003	0.637695
10.0114	-89.2409	0.706055
10.0172	-80.9718	0.774414
10.0228	-72.9907	0.842773
10.0293	-67.0532	0.911133
10.0354	-56.3829	0.979492
10.04	-49.1116	1.04785
10.0451	-52.8986	1.11621
10.0518	-53.2242	1.18457
10.0575	-54.966	1.25293
10.0629	-56.9759	1.32129
10.0685	-54.6964	1.38965
10.0743	-49.28051	1.45801
10.0798	-42.7715	1.52637
10.0865	-34.8304	1.59473
10.0909	-23.4492	1.66309
10.0972	-13.5123	1.73145
10.1017	-13.0885	1.7998
10.1083	-14.0595	1.86816
10.1142	-15.1321	1.93652
10.1195	-16.9695	2.00488
10.1258	-19.1027	2.07324
10.1313	-13.5743	2.1416
10.1373	-10.0811	2.20996
10.1425	-4.11051	2.27832
10.1479	9.01014	2.34668
10.1531	18.849	2.41504
10.1603	23.887	2.4834
10.1649	25.3133	2.55176
10.1713	24.8941	2.62012
10.1761	22.7999	2.68848
10.1824	20.8098	2.75684
10.1879	20.6804	2.8252
10.1935	23.021	2.89355
10.1999	29.4509	2.96191
10.2056	39.2253	3.03027
10.2107	51.4044	3.09863
10.2168	59.27137	3.16699
10.2222	63.51038	3.23535
10.2277	64.93605	3.30371
10.2336	63.6284	3.37207
10.2398	62.3346	3.44043
10.2453	59.5387	3.50879
10.2517	59.7201	3.57715
10.2561	63.90818	3.64551
10.262	74.7756	3.71387
10.2677	83.1697	3.78223
10.2738	93.0865	3.85059
10.2786	101.947	3.91895
10.284	104.371	3.9873
10.2904	102.12	4.05566
10.2973	102.297	4.12402
10.302	101.24	4.19238
10.307	97.68219	4.26074
10.3144	97.9883	4.3291
10.3191	107.745	4.39746
10.3252	117.554	4.46582
10.3305	124.648	4.53418
10.337	135.863	4.60254
10.3425	141.988	4.6709
10.3483	139.136	4.73926
10.3532	143.474	4.80762
10.3588	144.049	4.87598
10.3653	136.7859	4.94434
10.36994	133.516	5.0127
10.376	140.658	5.08105
10.381	150.7365	5.14941
10.3878	157.729	5.21777
10.3931	167.662	5.28613
10.3988	176.325	5.35449
10.4043	179.647	5.42285
10.4093	180.471	5.49121
10.4156	181.187	5.55957
10.4217	177.912	5.62793
10.4268	171.803	5.69629
10.4328	175.589	5.76465
10.438	183.7	5.83301
10.444	188.716	5.90137
10.4496	198.802	5.96973
10.4551	209.896	6.03809
10.4618	216.062	6.10645
10.4667	219.319	6.1748
10.4725	220.18	6.24316
10.4794	219.1597	6.31152
10.4847	212.031	6.37988
10.4893	212.734	6.44824
10.4963	219.6832	6.5166
10.5006	222.54	6.58496
10.5068	230.138	6.65332
10.5119	240.966	6.72168
10.5181	249.728	6.79004
10.5252	256.082	6.8584
10.5292	257.946	6.92676
10.5352	257.138	6.99512
10.5403	253.6	7.06348
10.5464	250.796	7.13184
10.5525	255.918	7.2002
10.5592	258.147	7.26855
10.5634	263.525	7.33691
10.5698	273.1387	7.40527
10.5752	283.235	7.47363
10.581	292.308	7.54199
10.5857	296.521	7.61035
10.5924	296.609	7.67871
10.5986	293.114	7.74707
10.6036	290.097	7.81543
10.6086	292.074	7.88379
10.6153	292.457	7.95215
10.621	295.656	8.02051
10.626	302.419	8.08887
10.6319	310.336	8.15723
10.6374	321.059	8.22559
10.6434	331.521	8.29395
10.6494	334.284	8.3623
10.65521	333.9104	8.43066
10.6603	333.025	8.49902
10.6667	332.853	8.56738
10.6717	330.0329	8.63574
10.6774	330.269	8.7041
10.6829	335.1731	8.77246
10.6889	341.031	8.84082
10.6945	352.7113	8.90918
10.6997	362.883	8.97754
10.7061	369.349	9.0459
10.71153	370.166	9.11426
10.718	371.911	9.18262
10.7233	373.141	9.25098
10.7286	368.276	9.31934
10.7344	365.678	9.3877
10.7395	368.701	9.45605
10.7455	371.215	9.52441
10.7509	381.657	9.59277
10.7577	394.0347	9.66113
10.7633	402.795	9.72949
10.7687	404.537	9.79785
10.7743	408.898	9.86621
10.7792	412.7182	9.93457
10.7852	406.175	10.00293
10.7918	402.772	10.0713
10.7974	403.875	10.1396
10.8025	405.296	10.208
10.8081	411.757	10.2764
10.8148	422.54	10.3447
10.8195	432.128	10.4131
10.8258	437.979	10.4814
10.8303	443.277	10.5498
10.8371	450.028	10.6182
10.8422	446.942	10.6865
10.8489	440.202	10.7549
10.8538	440.757	10.8232
10.8591	440.562	10.8916
10.8654	442.962	10.96
10.8707	452.779	11.02832
10.8766	462.704	11.09668
10.8817	470.226	11.165
10.8874	475.8894	11.2334
10.8945	485.817	11.3018
10.8992	485.597	11.3701
10.9048	480.015	11.4385
10.9121	479.157	11.5068
10.91659	476.588	11.5752
10.9225	477.74	11.6436
10.9275	482.124	11.7119
10.933	492.368	11.7803
10.9397	500.207	11.8486
10.9452	507.095	11.917
10.9509	515.886	11.9854
10.9555	521.021	12.0537
10.9622	517.795	12.12207
10.9682	515.0036	12.19043
10.9739	512.146	12.2588
10.9794	510.164	12.3271
10.9853	513.48	12.3955
10.9905	520.109	12.4639
10.99666	527.006	12.5322
11.00279	536.752	12.6006
11.0083	548.135	12.6689
11.0133	553.548	12.7373
11.0186	553.732	12.8057
11.0249	551.835	12.874
11.0309	547.9826	12.9424
11.0351	546.017	13.0107
11.0421	546.441	13.0791
11.0474	547.874	13.1475
11.0535	553.306	13.21582
11.0597	563.517	13.28418
11.0641	576.873	13.3525
11.0703	582.228	13.4209
11.0761	587.077	13.4893
11.08129	588.583	13.5576
11.0874	585.5575	13.626
11.0925	580.443	13.6943
11.0987	579.761	13.7627
11.1046	579.738	13.8311
11.1094	582.011	13.8994
11.1157	590.443	13.9678
11.1207	604.642	14.0361
11.1267	612.3371	14.1045
11.1329	619.421	14.1729
11.139	622.83	14.2412
11.1445	619.486	14.30957
11.1504	616.886	14.37793
11.1558	613.081	14.4463
11.1613	612.75	14.5146
11.1668	610.155	14.583
11.1721	616.442	14.6514
11.1781	631.249	14.7197
11.18508	638.231	14.7881
11.1895	646.132	14.8564
11.196	653.031	14.9248
11.2006	655.2193	14.9932
11.20692	651.021	15.0615
11.2134	650.246	15.1299
11.2174	647.115	15.1982
11.22434	641.669	15.2666
11.22808	644.742	15.335
11.2353	656.491	15.40332
11.2411	664.772	15.47168
11.2466	672.814	15.54
11.25155	681.401	15.6084
11.25818	686.068	15.6768
11.2637	684.451	15.7451
11.26968	682.424	15.8135
11.2755	679.5733	15.8818
11.2818	675.128	15.9502
11.2862	673.259	16.0186
11.2931	682.081	16.0869
11.2995	690.478	16.1553
11.3039	696.774	16.2236
11.3091	709.015	16.292
11.3145	716.147	16.3604
11.3218	717.488	16.4287
11.3264	715.176	16.49707
11.3313	713.03	16.56543
11.3379	707.18	16.6338
11.3428	701.646	16.7021
11.34959	707.665	16.7705
11.3549	716.035	16.8389
11.36036	724.1814	16.9072
11.3662	732.226	16.9756
11.3721	741.666	17.0439
11.3778	747.757	17.1123
11.3828	747.069	17.1807
11.389	745.33	17.249
11.3949	738.542	17.3174
11.4009	735.859	17.3857
11.4059	736.371	17.4541
11.4107	739.595	17.5225
11.4172	746.558	17.59082
11.4226	755.546	17.65918
11.4286	765.433	17.7275
11.4343	774.179	17.7959
11.4389	777.81	17.8643
11.4451	775.423	17.9326
11.4512	772.274	18.001
11.4572	765.5191	18.0693
11.4626	766.395	18.1377
11.4689	765.325	18.2061
11.4749	771.143	18.2744
11.4798	779.634	18.3428
11.4858	787.43	18.4111
11.4909	797.184	18.4795
11.4976	805.279	18.5479
11.5033	805.435	18.6162
11.5087	801.38	18.68457
11.5143	796.247	18.75293
11.5201	794.948	18.8213
11.5255	792.749	18.8896
11.5317	794.819	18.958
11.5374	801.039	19.0264
11.543	807.568	19.0947
11.5486	820.081	19.1631
11.5542	829.9566	19.2314
11.5599	832.1933	19.2998
11.5662	829.916	19.3682
11.571	826.991	19.4365
11.5769	826.266	19.5049
11.5829	821.536	19.5732
11.5874	819.623	19.6416
11.5934	824.882	19.71
11.6004	831.542	19.77832
11.6059	839.802	19.84668
11.6109	850.644	19.915
11.61636	858.298	19.9834
11.61888	835.388	20.0127

[...]
15.1739	1036.19	62.6787
15.1759	1018.505	62.6982
15.1772	1027.48	62.7178
15.1788	1035.26	62.7373
15.1794	1022.32	62.7568
15.1818	1025.38	62.7764
15.1833	1038.8	62.7959
15.1856	1021.45	62.81543
15.188	1024.05	62.835
15.1879	1037.5	62.8545
15.1902	1028.46	62.874
15.1908	1019.338	62.8936
15.19331	1036.71	62.9131
15.1932	1030.95	62.9326
15.1963	1021.04	62.9521
15.1983	1029.51	62.97168
15.19865	1032.97	62.9912
15.2011	1019.63	63.0107
15.2036	1029.106	63.0303
15.2057	1033.89	63.0498
15.2058	1021.4	63.0693
15.208	1023.48	63.0889
15.2102	1037.15	63.1084
15.20982	1023.65	63.12793
15.2135	1020.463	63.1475
15.2141	1033.79	63.167
15.2163	1027.3	63.1865
15.2175	1019.35	63.2061
15.2187	1032.2	63.2256
15.21989	1029.8	63.2451
15.2225	1016.72	63.2646
15.2245	1030.443	63.28418
15.2258	1031.717	63.3037
15.2273	1015.697	63.3232
15.2286	1026.47	63.3428
15.231	1035.02	63.3623
15.2329	1016.61	63.3818
15.2349	1021.87	63.4014
15.2356	1032.67	63.4209
15.2386	1019.32	63.44043
15.2386	1018.34	63.46
15.24077	1032.55	63.4795
15.2422	1018.49	63.499
15.2442	1015.12	63.5186
15.2455	1029.68	63.5381
15.2465	1025.64	63.5576
15.2491	1012.07	63.5771
15.25016	1024.53	63.59668
15.2526	1023.63	63.6162
15.2541	1013.73	63.6357
15.25529	1019.32	63.6553
15.2576	1026.38	63.6748
15.2582	1012.35	63.6943
15.2605	1017.25	63.7139
15.2612	1024.45	63.7334
15.2626	1012.87	63.75293
15.2656	1009.34	63.7725
15.2667	1023.9	63.792
15.2682	1004.85	63.8115
15.2755	20.2599	63.8311
15.2769	-30.2593	63.8506
15.276	-32.7051	63.8701
15.2781	-48.6555	63.8896
15.27857	-37.9017	63.90918
15.2797	-32.0126	63.9287
15.28124	-52.1968	63.9482
15.2822	-41.7008	63.9678
15.2837	-28.0901	63.9873
15.2848	-48.66193	64.0068
15.2866	-48.3992	64.0264
15.2887	-26.75351	64.0459
15.29	-44.8378	64.06543
15.2924	-47.3416	64.085
15.2936	-31.0547	64.1045
15.2956	-39.1343	64.124
15.2968	-49.8226	64.1436
15.2975	-31.10788	64.1631
15.3004	-38.2916	64.1826
15.3012	-49.9895	64.2021
15.3037	-38.0406	64.22168
15.3051	-30.4844	64.2412
15.3057	-49.2493	64.2607
15.3078	-41.2388	64.2803
15.3102	-33.121	64.2998
15.3119	-45.2874	64.3193
15.3122	-45.8834	64.3389
15.3149	-30.6714	64.3584
15.3154	-43.28508	64.37793
15.3174	-46.8307	64.3975
15.3197	-32.56731	64.417
15.3211	-40.7767	64.4365
15.3221	-50.47052	64.4561
15.3238	-34.6604	64.4756
15.3252	-34.3848	64.4951
15.3271	-49.4518	64.5146
15.3288	-40.0095	64.53418
15.33007	-33.79	64.5537
15.3316	-47.4832	64.5732
15.3332	-40.1509	64.5928
15.3355	-30.77961	64.6123
15.3376	-48.4626	64.6318
15.3389	-43.42815	64.6514
15.3403	-31.4486	64.6709
15.3405	-43.439	64.69043
15.3429	-48.1633	64.71
15.3453	-30.3444	64.7295
15.3463	-42.833	64.749
15.3476	-47.0896	64.7686
15.3498	-35.2145	64.7881
15.352	-37.6877	64.8076
15.3524	-49.8822	64.8271
15.3556	-31.9129	64.84668
15.3562	-37.1715	64.8662
15.3575	-49.1185	64.8857
15.3594	-43.2665	64.9053
15.3621	-31.7193	64.9248
15.3621	-46.7249	64.9443
15.3652	-43.2026	64.9639
15.3665	-33.5742	64.9834
15.3673	-41.3707	65.00293
15.3701	-47.0872	65.0225
15.3717	-32.4934	65.042
15.3723	-40.9738	65.0615
15.3745	-47.388	65.0811
15.3762	-35.5852	65.1006
15.378	-35.3305	65.1201
15.3782	-49.80479	65.1396
15.3806	-38.3624	65.15918
15.3832	-31.7697	65.1787
15.3845	-49.2436	65.1982
15.3855	-42.38641	65.2178
15.3882	-32.4395	65.2373
15.3894	-47.5633	65.2568
15.3896	-43.4424	65.2764
15.3924	-29.9196	65.2959
15.3941	-46.9646	65.31543
15.396	-47.6497	65.335
15.3971	-31.6175	65.3545
15.3981	-39.4369	65.374
15.3993	-51.1917	65.3936
15.4022	-33.64407	65.4131
15.4042	-38.9395	65.4326
15.405	-46.5224	65.4521
15.4072	-36.4569	65.47168
15.4089	-35.75	65.4912
15.4104	-49.9061	65.5107
15.4119	-39.4778	65.5303
15.4122	-34.6438	65.54

File: 0.254_solid_uprint_typei_4545_r(5).dat
MTS793|BTW|ENU|1|2|.|/|:|1|0|0|A

Data Header:			0.254_solid_uprint_typei_4545_r0			Time:	20.0176	s	4/14/2019 4:29:36 AM
Data Acquisition:	Timed
Station Name:	ft40.cfg
Test File Name:	monotonic_0.2540_typei_solid_4545_uprint.tst
Displacement	Force	Running Time
mm	N	s
9.95785	-122.918	0.0224609
9.95946	-120.024	0.0908203
9.96514	-122.36	0.15918
9.97166	-119.7672	0.227539
9.97798	-109.654	0.295898
9.98327	-99.0946	0.364258
9.98745	-94.7808	0.432617
9.995	-87.2906	0.500977
9.99959	-85.5583	0.569336
10.006	-87.8413	0.637695
10.0116	-87.4898	0.706055
10.0169	-86.8329	0.774414
10.0232	-91.3888	0.842773
10.0288	-88.40641	0.911133
10.0336	-78.4039	0.979492
10.0392	-71.3022	1.04785
10.0447	-67.6067	1.11621
10.05	-55.7714	1.18457
10.05644	-50.5316	1.25293
10.0622	-51.3652	1.32129
10.0682	-50.499	1.38965
10.075	-52.0377	1.45801
10.0794	-54.6723	1.52637
10.0845	-54.6405	1.59473
10.0909	-46.6675	1.66309
10.0965	-41.0036	1.73145
10.1022	-34.73896	1.7998
10.1075	-23.1183	1.86816
10.1146	-18.9632	1.93652
10.119	-15.5957	2.00488
10.1248	-12.2502	2.07324
10.1306	-12.831	2.1416
10.1366	-20.47714	2.20996
10.1419	-18.0711	2.27832
10.148	-11.9396	2.34668
10.1526	-10.01595	2.41504
10.1594	-2.17867	2.4834
10.16416	6.949954	2.55176
10.17	14.5644	2.62012
10.1751	20.7113	2.68848
10.1815	23.08935	2.75684
10.1868	22.905	2.8252
10.1936	18.9323	2.89355
10.1992	21.9443	2.96191
10.2042	22.5271	3.03027
10.21	23.6754	3.09863
10.21543	28.9546	3.16699
10.2214	39.4256	3.23535
10.2271	47.31374	3.30371
10.2331	53.7005	3.37207
10.23865	59.76749	3.44043
10.2444	59.7256	3.50879
10.2508	58.37727	3.57715
10.2557	60.3791	3.64551
10.2614	59.1385	3.71387
10.2667	59.9399	3.78223
10.2732	63.8242	3.85059
10.2786	71.9153	3.91895
10.2837	79.8375	3.9873
10.2891	87.8195	4.05566
10.2961	93.0288	4.12402
10.3017	96.1085	4.19238
10.30631	98.4369	4.26074
10.3123	99.96209	4.3291
10.318	98.5223	4.39746
10.3242	99.0266	4.46582
10.3289	100.751	4.53418
10.3365	103.562	4.60254
10.3405	114.234	4.6709
10.3467	121.45	4.73926
10.3529	127.618	4.80762
10.3585	132.838	4.87598
10.36315	137.468	4.94434
10.3697	139.325	5.0127
10.375	138.697	5.08105
10.3801	135.243	5.14941
10.3852	136.692	5.21777
10.3922	139.408	5.28613
10.3979	146.92	5.35449
10.4028	153.794	5.42285
10.4097	158.918	5.49121
10.4152	166.238	5.55957
10.42065	174.83	5.62793
10.4268	176.226	5.69629
10.432	175.706	5.76465
10.4381	176.221	5.83301
10.4437	174.281	5.90137
10.4496	173.947	5.96973
10.45533	180.314	6.03809
10.4611	186.151	6.10645
10.4662	189.277	6.1748
10.4718	199.5139	6.24316
10.4783	211.569	6.31152
10.4833	212.814	6.37988
10.489	216.133	6.44824
10.4951	216.512	6.5166
10.5005	212.759	6.58496
10.5067	211.485	6.65332
10.5118	214.296	6.72168
10.5173	218.074	6.79004
10.5227	222.227	6.8584
10.5285	232.996	6.92676
10.5345	245.658	6.99512
10.5406	248.314	7.06348
10.5458	252.038	7.13184
10.55195	256.57	7.2002
10.558	249.211	7.26855
10.5638	249.373	7.33691
10.5681	252.5923	7.40527
10.5746	252.798	7.47363
10.58059	253.53	7.54199
10.5866	264.657	7.61035
10.5915	277.1514	7.67871
10.5965	283.176	7.74707
10.6034	288.9794	7.81543
10.6092	294.182	7.88379
10.6142	292.723	7.95215
10.6192	289.315	8.02051
10.6264	289.932	8.08887
10.6315	287.129	8.15723
10.6369	287.687	8.22559
10.6425	298.7	8.29395
10.6479	310.279	8.3623
10.6539	315.342	8.43066
10.6596	325.236	8.49902
10.6666	328.833	8.56738
10.6709	330.01	8.63574
10.6774	328.927	8.7041
10.682	327.995	8.77246
10.68929	325.194	8.84082
10.6943	323.723	8.90918
10.6999	330.525	8.97754
10.7053	337.387	9.0459
10.711	343.463	9.11426
10.7163	355.146	9.18262
10.7224	362.7254	9.25098
10.7269	368.534	9.31934
10.7341	370.8869	9.3877
10.7396	368.4	9.45605
10.7442	364.081	9.52441
10.7512	359.926	9.59277
10.7564	365.385	9.66113
10.7621	368.727	9.72949
10.7682	373.722	9.79785
10.7743	385.906	9.86621
10.7795	393.3252	9.93457
10.7847	401.298	10.00293
10.7905	406.614	10.0713
10.7964	407.432	10.1396
10.8027	403.141	10.208
10.80679	398.306	10.2764
10.813	400.991	10.3447
10.8191	400.842	10.4131
10.8249	405.193	10.4814
10.8304	412.482	10.5498
10.8366	422.161	10.6182
10.8412	434.045	10.6865
10.8473	441.332	10.7549
10.8537	442.92	10.8232
10.8577	441.664	10.8916
10.8641	438.371	10.96
10.87	439.51	11.02832
10.876	435.864	11.09668
10.8819	438.343	11.165
10.8873	443.9249	11.2334
10.8936	453.441	11.3018
10.89865	463.658	11.3701
10.9049	472.596	11.4385
10.9098	476.793	11.5068
10.9156	477.322	11.5752
10.9222	479.13	11.6436
10.9264	475.535	11.7119
10.9331	472.408	11.7803
10.9401	472.6095	11.8486
10.9443	473.51	11.917
10.9504	481.201	11.9854
10.9559	493.825	12.0537
10.9626	501.616	12.12207
10.96682	507.247	12.19043
10.9722	513.108	12.2588
10.9789	515.649	12.3271
10.9845	513.006	12.3955
10.9894	511.5	12.4639
10.9962	506.673	12.5322
11.001	505.671	12.6006
11.0067	510.675	12.6689
11.013	522.038	12.7373
11.0184	528.87	12.8057
11.0249	536.0636	12.874
11.0296	545.441	12.9424
11.0354	551.106	13.0107
11.0414	547.2854	13.0791
11.0476	547.416	13.1475
11.0537	543.461	13.21582
11.0585	538.503	13.28418
11.0644	541.574	13.3525
11.0691	548.901	13.4209
11.0746	554.799	13.4893
11.0811	563.2735	13.5576
11.0868	575.437	13.626
11.0926	581.498	13.6943
11.09759	581.299	13.7627
11.1048	581.803	13.8311
11.1091	577.5954	13.8994
11.1157	572.806	13.9678
11.1207	573.804	14.0361
11.1268	578.07	14.1045
11.1324	579.913	14.1729
11.1386	588.812	14.2412
11.1443	604.724	14.30957
11.1498	611.55	14.37793
11.1551	615.491	14.4463
11.1604	617.874	14.5146
11.1667	614.401	14.583
11.1723	609.412	14.6514
11.1777	607.902	14.7197
11.183	609.2644	14.7881
11.1885	607.814	14.8564
11.1956	616.237	14.9248
11.2007	631.065	14.9932
11.2062	638.774	15.0615
11.2125	645.194	15.1299
11.21818	651.646	15.1982
11.2236	649.8313	15.2666
11.2286	645.476	15.335
11.2343	643.628	15.40332
11.2403	638.898	15.47168
11.2457	636.8	15.54
11.2521	644.116	15.6084
11.2581	656.41	15.6768
11.2633	662.858	15.7451
11.2691	672.8855	15.8135
11.2752	681.446	15.8818
11.2799	679.862	15.9502
11.2864	681.462	16.0186
11.2915	677.107	16.0869
11.2974	672.003	16.1553
11.3033	666.8125	16.2236
11.3093	672.148	16.292
11.315	680.085	16.3604
11.3201	687.729	16.4287
11.326	698.793	16.49707
11.3324	707.9	16.56543
11.3373	710.473	16.6338
11.34389	712.604	16.7021
11.3487	710.768	16.7705
11.354	702.279	16.8389
11.3594	698.532	16.9072
11.3658	701.387	16.9756
11.3715	705.385	17.0439
11.3766	711.329	17.1123
11.3825	722.218	17.1807
11.3876	731.54	17.249
11.3946	739.38	17.3174
11.4007	742.807	17.3857
11.4049	741.431	17.4541
11.4105	734.6026	17.5225
11.4181	730.564	17.59082
11.4229	729.9209	17.65918
11.4283	731.524	17.7275
11.4343	735.737	17.7959
11.4401	744.57	17.8643
11.4455	754.999	17.9326
11.45116	764.3869	18.001
11.4562	767.886	18.0693
11.4633	771.198	18.1377
11.4687	765.541	18.2061
11.4739	761.689	18.2744
11.4799	762.259	18.3428
11.4852	758.98	18.4111
11.49078	760.985	18.4795
11.4967	767.595	18.5479
11.5031	776.01	18.6162
11.5087	787.284	18.68457
11.51453	794.739	18.75293
11.52	797.4	18.8213
11.526	797.1322	18.8896
11.5305	795.357	18.958
11.5367	790.878	19.0264
11.5433	786.358	19.0947
11.5475	787.121	19.1631
11.5542	790.422	19.2314
11.5598	797.728	19.2998
11.56494	809.062	19.3682
11.56997	817.323	19.4365
11.5756	821.512	19.5049
11.5824	823.506	19.5732
11.5876	823.74	19.6416
11.594	819.927	19.71
11.5989	816.936	19.77832
11.6048	815.174	19.84668
11.6103	812.701	19.915
11.616	819.48	19.9834
[...]
16.7115	-31.3448	81.1357
16.7135	-51.0229	81.1553
16.715	-41.7768	81.1748
16.717	-29.0228	81.1943
16.7172	-42.5889	81.2139
16.7198	-48.4822	81.2334
16.7221	-28.50256	81.25293
16.72278	-41.8552	81.2725
16.725	-46.5866	81.292
16.7274	-32.1923	81.3115
16.7275	-38.7678	81.3311
16.7292	-51.3725	81.3506
16.7308	-31.7057	81.3701
16.7334	-36.8843	81.3896
16.7341	-49.4701	81.40918
16.7365	-35.9224	81.4287
16.7376	-32.7103	81.4482
16.7385	-48.6936	81.4678
16.7412	-42.278	81.4873
16.7428	-33.7335	81.5068
16.7439	-47.1245	81.5264
16.7456	-42.7718	81.5459
16.7474	-33.4331	81.56543
16.7494	-44.3512	81.585
16.7508	-47.24815	81.6045
16.7521	-32.6844	81.624
16.7531	-40.8378	81.6436
16.7552	-49.7117	81.6631
16.7571	-36.7681	81.6826
16.7604	-34.4415	81.7021
16.7609	-49.3481	81.72168
16.7613	-38.3544	81.7412
16.7634	-35.13921	81.7607
16.7652	-46.4341	81.7803
16.7681	-41.7687	81.7998
16.7685	-29.2923	81.8193
16.77006	-48.0292	81.8389
16.77042	-43.36375	81.8584
16.7731	-29.1376	81.87793
16.77478	-41.9226	81.8975
16.7755	-50.1735	81.917
16.77877	-32.4594	81.9365
16.7795	-40.7066	81.9561
16.782	-48.4458	81.9756
16.7825	-34.9843	81.9951
16.7844	-36.9065	82.0146
16.7869	-51.0778	82.03418
16.7879	-37.6145	82.0537
16.7898	-34.2951	82.0732
16.7913	-49.9853	82.0928
16.7931	-41.6903	82.1123
16.7947	-31.88084	82.1318
16.7967	-47.3658	82.1514
16.7974	-44.5949	82.1709
16.7997	-33.848	82.19043
16.8004	-43.5391	82.21
16.8025	-42.731	82.2295
16.8044	-34.72419	82.249
16.8066	-40.4182	82.2686
16.8074	-49.2841	82.2881
16.8088	-34.8648	82.3076
16.81	-37.23159	82.3271
16.8125	-50.0993	82.34668
16.8126	-41.4701	82.3662
16.8164	-32.0463	82.3857
16.8167	-48.9694	82.4053
16.8194	-41.5559	82.4248
16.82058	-32.8037	82.4443
16.8222	-45.4265	82.4639
16.8232	-45.161	82.4834
16.8261	-30.0602	82.50293
16.8266	-46.1888	82.5225
16.8284	-47.4195	82.542
16.8296	-31.7181	82.5615
16.8315	-38.6719	82.5811
16.833	-51.3155	82.6006
16.8342	-34.5722	82.6201
16.8358	-38.0434	82.6396
16.8377	-48.4705	82.65918
16.8396	-37.769	82.6787
16.8412	-37.6664	82.6982
16.8439	-49.6893	82.7178
16.8447	-40.9441	82.7373
16.846	-32.66917	82.7568
16.8482	-47.1409	82.7764
16.8499	-43.254	82.7959
16.8521	-34.6148	82.81543
16.8528	-43.6428	82.835
16.8537	-47.2037	82.8545
16.8571	-34.11808	82.874
16.8582	-40.9153	82.8936
16.8591	-44.8863	82.9131
16.8612	-37.5019	82.9326
16.86314	-37.0287	82.9521
16.86462	-50.3474	82.97168
16.8673	-37.8328	82.9912
16.8678	-34.0097	83.0107
16.8696	-48.1177	83.0303
16.8705	-44.9848	83.0498
16.8722	-32.2444	83.0693
16.8748	-47.5052	83.0889
16.8761	-44.4862	83.1084
16.8768	-32.8153	83.12793
16.8798	-42.8185	83.1475
16.8801	-47.69434	83.167
16.8821	-33.3281	83.1865
16.8839	-43.2258	83.2061
16.8853	-50.949	83.2256
16.8872	-34.2056	83.2451
16.8887	-38.8586	83.2646
16.8904	-51.9403	83.28418
16.8918	-38.4214	83.3037
16.893	-35.4915	83.3232
16.8944	-49.6336	83.3428
16.8963	-40.9954	83.3623
16.898	-36.0501	83.3818
16.9004	-47.2412	83.4014
16.90173	-45.1805	83.4209
16.9036	-32.1286	83.44043
16.9049	-44.9604	83.46
16.9071	-46.0444	83.4795
16.90884	-35.537	83.499
16.9105	-40.6767	83.5186
16.912	-50.3592	83.5381
16.9134	-35.1599	83.5576
16.9146	-36.9108	83.5771
16.9163	-47.3994	83.59668
16.9179	-42.0407	83.6162
16.9201	-34.6723	83.6357
16.9211	-50.2091	83.6553
16.9235	-41.4749	83.6748
16.9247	-32.3094	83.6943
16.92647	-46.2812	83.7139
16.9279	-47.6997	83.7334
16.9291	-31.23094	83.75293
16.9322	-44.5857	83.7725
16.9327	-47.6274	83.792
16.9336	-34.9698	83.8115
16.9357	-42.2324	83.8311
16.9374	-49.407	83.8506
16.9402	-35.9875	83.8701
16.941	-37.911	83.8896
16.9418	-49.8844	83.90918
16.9436	-37.5267	83.9287
16.94578	-36.7599	83.9482
16.94747	-49.7231	83.9678