Folder: Stress_Strain_Analysis_Tools/data/processed_data_files/tensile (part 14)

File: 0.254_hd_dimension_typeiv_4545_r(5).dat
MTS793|BTW|ENU|1|2|.|/|:|1|0|0|A

Data Header:			0.254_hd_dimension_typeiv_4545_r0			Time:	20.0168	s	4/13/2019 8:23:06 PM
Data Acquisition:	Timed
Station Name:	ft40.cfg
Test File Name:	monotonic_0.2540_typeiv_hd_4545_dimension.tst
Displacement	Force	Running Time
mm	N	s
-40.0342	-162.094	0.0222168
-40.0336	-162.9314	0.0905762
-40.0286	-161.31	0.158936
-40.0228	-155.248	0.227295
-40.0164	-151.571	0.2956543
-40.0108	-151.014	0.364014
-40.0053	-147.016	0.432373
-39.999	-145.192	0.500732
-39.9939	-146.492	0.5690918
-39.9871	-143.8412	0.637451
-39.9805	-136.524	0.705811
-39.9761	-132.957	0.77417
-39.9714	-130.0191	0.8425293
-39.9661	-123.439	0.910889
-39.9591	-119.6203	0.979248
-39.9533	-115.831	1.04761
-39.948	-113.3427	1.11597
-39.94249	-110.782	1.18433
-39.9361	-114.486	1.25269
-39.92984	-112.028	1.32104
-39.9249	-103.843	1.3894
-39.9203	-103.2217	1.45776
-39.91407	-99.4724	1.526123
-39.9092	-93.147	1.59448
-39.9027	-87.80735	1.66284
-39.8972	-82.8992	1.7312
-39.89109	-81.7139	1.79956
-39.8861	-79.4565	1.86792
-39.8794	-80.3877	1.93628
-39.873	-77.4779	2.00464
-39.8689	-73.4723	2.072998
-39.8622	-70.9427	2.14136
-39.8579	-65.32399	2.20972
-39.8512	-61.1871	2.27808
-39.8464	-56.4688	2.34644
-39.84	-50.1334	2.41479
-39.8339	-48.616	2.48315
-39.8294	-46.6027	2.55151
-39.823	-47.824	2.619873
-39.8176	-44.2277	2.68823
-39.812	-42.0593	2.75659
-39.8068	-39.0371	2.82495
-39.8004	-34.3631	2.89331
-39.7946	-31.8428	2.96167
-39.7883	-26.6219	3.03003
-39.7838	-18.73975	3.09839
-39.7789	-15.1522	3.166748
-39.7719	-15.9596	3.23511
-39.7661	-15.6284	3.30347
-39.76083	-9.19848	3.37183
-39.7553	-9.28326	3.44019
-39.7487	-8.85803	3.50854
-39.7435	-4.14968	3.5769
-39.7379	0.674227	3.64526
-39.7315	6.28392	3.713623
-39.7261	12.5117	3.78198
-39.7206	15.9531	3.85034
-39.7149	17.0034	3.9187
-39.7091	19.5366	3.98706
-39.7031	25.5192	4.05542
-39.698	22.2326	4.12378
-39.69157	23.9663	4.19214
-39.6865	29.1709	4.260498
-39.681	32.592	4.32886
-39.6751	37.3015	4.39722
-39.6697	43.3753	4.46558
-39.6633	47.8682	4.53394
-39.6581	47.0961	4.60229
-39.652	52.0819	4.67065
-39.647	60.1981	4.73901
-39.6405	58.8603	4.807373
-39.6341	57.3429	4.87573
-39.6296	61.3598	4.94409
-39.6226	63.89167	5.01245
-39.6181	68.6139	5.08081
-39.6126	73.44162	5.14917
-39.6063	77.871	5.21753
-39.6005	79.3083	5.28589
-39.5954	83.49279	5.354248
-39.5894	90.2554	5.42261
-39.5826	90.1944	5.49097
-39.5774	90.057	5.55933
-39.5727	93.6507	5.62769
-39.5675	95.7635	5.69604
-39.5611	99.8585	5.7644
-39.5557	104.358	5.83276
-39.5488	107.029	5.901123
-39.5442	110.601	5.96948
-39.5373	117.481	6.03784
-39.5326	121.132	6.1062
-39.527	123.707	6.17456
-39.5218	124.769	6.24292
-39.5145	126.909	6.31128
-39.5094	127.232	6.37964
-39.5049	131.755	6.447998
-39.4988	134.886	6.51636
-39.4926	137.2384	6.58472
-39.48534	140.311	6.65308
-39.4797	148.967	6.72144
-39.4763	151.7321	6.78979
-39.4702	152.22	6.85815
-39.4646	155.752	6.92651
-39.4583	155.479	6.994873
-39.4528	158.828	7.06323
-39.4463	162.811	7.13159
-39.4404	164.473	7.19995
-39.4361	164.733	7.26831
-39.43058	168.854	7.33667
-39.4248	178.926	7.40503
-39.4183	180.316	7.47339
-39.4123	183.875	7.541748
-39.408	189.075	7.61011
-39.4015	188.451	7.67847
-39.3952	190.051	7.74683
-39.3901	192.339	7.81519
-39.3847	194.676	7.88354
-39.37965	193.93	7.9519
-39.3739	199.1059	8.02026
-39.3679	207.261	8.088623
-39.3623	209.391	8.15698
-39.3559	212.749	8.22534
-39.3504	218.519	8.2937
-39.3437	219.174	8.36206
-39.3386	220.825	8.43042
-39.3328	224.505	8.49878
-39.3281	223.423	8.56714
-39.3224	223.738	8.635498
-39.3162	227.694	8.70386
-39.311	236.597	8.77222
-39.3051	237.33	8.84058
-39.2987	242.6944	8.90894
-39.2929	247.773	8.97729
-39.2879	249.382	9.04565
-39.28194	250.817	9.11401
-39.2761	255.777	9.182373
-39.2705	255.558	9.25073
-39.2643	253.93	9.31909
-39.2597	257.547	9.38745
-39.2533	263.0257	9.45581
-39.248	266.8501	9.52417
-39.2422	270.957	9.59253
-39.2358	275.156	9.66089
-39.2302	280.1431	9.729248
-39.2239	281.502	9.79761
-39.2194	285.699	9.86597
-39.2139	284.2688	9.93433
-39.2077	282.342	10.0027
-39.2028	287.415	10.071
-39.1951	290.329	10.1394
-39.1908	293.676	10.2078
-39.1851	299.312	10.2761
-39.1788	302.91	10.3445
-39.1743	307.847	10.4128
-39.1685	310.711	10.4812
-39.163	312.776	10.5496
-39.1565	311.8967	10.61792
-39.15134	311.669	10.6863
-39.1446	316.7995	10.7546
-39.1396	317.117	10.823
-39.1344	319.42	10.8914
-39.1277	326.173	10.9597
-39.1228	327.216	11.0281
-39.1158	332.68	11.0964
-39.1113	338.118	11.1648
-39.1049	341.168	11.2332
-39.0997	337.323	11.3015
-39.0945	340.413	11.3699
-39.0885	343.8	11.4382
-39.0828	342.065	11.5066
-39.077	345.139	11.575
-39.0708	350.003	11.6433
-39.0647	351.8183	11.71167
-39.05904	359.116	11.78
-39.0544	364.687	11.8484
-39.0479	366.186	11.9167
-39.0417	365.322	11.9851
-39.0369	367.814	12.0535
-39.0325	371.348	12.1218
-39.0251	368.951	12.1902
-39.02	368.972	12.2585
-39.0144	374.033	12.3269
-39.008	376.237	12.3953
-39.0029	381.563	12.4636
-38.9965	388.174	12.532
-38.9916	390.783	12.6003
-38.9852	391.748	12.6687
-38.98	394.181	12.7371
-38.9733	395.002	12.80542
-38.9679	393.468	12.8738
-38.9633	394.005	12.9421
-38.958	396.686	13.0105
-38.9517	400.227	13.0789
-38.9462	402.6	13.1472
-38.9402	407.621	13.2156
-38.9338	411.704	13.2839
-38.9299	410.145	13.3523
-38.9227	414.28	13.4207
-38.917	415.903	13.489
-38.9132	416.013	13.5574
-38.9068	416.201	13.6257
-38.9019	417.8735	13.6941
-38.895	421.279	13.7625
-38.8896	422.2778	13.8308
-38.8838	426.917	13.89917
-38.8775	429.553	13.9675
-38.8715	431.17	14.0359
-38.8663	435.755	14.1042
-38.8616	437.606	14.1726
-38.855	436.012	14.241
-38.8493	436.602	14.3093
-38.8437	435.771	14.3777
-38.8382	437.8895	14.446
-38.8323	440.362	14.5144
-38.8273	441.967	14.5828
-38.8213	441.8952	14.6511
-38.8154	447.628	14.7195
-38.8083	452.757	14.7878
-38.8038	453.003	14.8562
-38.798	454.044	14.9246
-38.7933	453.843	14.99292
-38.7862	451.22	15.0613
-38.7804	454.022	15.1296
-38.7757	456.064	15.198
-38.7695	454.474	15.2664
-38.7642	455.654	15.3347
-38.7574	460.924	15.4031
-38.7524	466.128	15.4714
-38.7472	464.225	15.5398
-38.7412	465.911	15.6082
-38.7346	466.334	15.6765
-38.7298	465.538	15.7449
-38.723	464.18	15.8132
-38.7184	466.144	15.8816
-38.7112	462.941	15.95
-38.7075	463.684	16.0183
-38.7013	468.892	16.08667
-38.6946	474.7207	16.155
-38.6899	473.547	16.2234
-38.6843	473.744	16.2917
-38.678	475.29	16.3601
-38.672	474.938	16.4285
-38.6669	473.0022	16.4968
-38.6615	473.549	16.5652
-38.6555	470.01	16.6335
-38.6489	467.657	16.7019
-38.6443	472.549	16.7703
-38.6388	475.404	16.8386
-38.6325	475.125	16.907
-38.6272	476.886	16.9753
-38.6226	479.2688	17.0437
-38.6161	477.453	17.1121
-38.6102	476.732	17.18042
-38.6052	475.997	17.2488
-38.5984	472.098	17.3171
-38.5932	469.1767	17.3855
-38.5866	473.061	17.4539
-38.5823	475.361	17.5222
-38.5762	474.509	17.5906
-38.5697	477.425	17.6589
-38.564	477.635	17.7273
-38.5587	480.161	17.7957
-38.5528	479.434	17.864
-38.5482	477.0676	17.9324
-38.5412	473.147	18.0007
-38.5355	471.183	18.0691
-38.531	472.949	18.1375
-38.5236	474.952	18.2058
-38.5184	475.286	18.27417
-38.5122	477.993	18.3425
-38.5076	478.3	18.4109
-38.5019	481.442	18.4792
-38.4955	481.051	18.5476
-38.4911	476.5004	18.616
-38.4856	472.761	18.6843
-38.4794	473.679	18.7527
-38.4733	473.603	18.821
-38.4683	472.936	18.8894
-38.46154	472.033	18.9578
-38.4569	476.112	19.0261
-38.4513	476.226	19.0945
[...]
-36.5634	462.281	41.741
-36.562	461.296	41.7605
-36.5608	463.465	41.78
-36.5602	463.889	41.7996
-36.5564	458.32	41.8191
-36.5547	461.242	41.8386
-36.5532	465.687	41.8582
-36.5513	460.759	41.8777
-36.5483	457.206	41.8972
-36.5485	464.191	41.9167
-36.54752	458.943	41.9363
-36.5446	456.965	41.9558
-36.5443	463.111	41.9753
-36.5435	460.537	41.9949
-36.5406	455.83	42.0144
-36.5395	464.48	42.0339
-36.5377	460.426	42.0535
-36.5359	455.893	42.073
-36.5348	459.1467	42.0925
-36.5324	464.456	42.1121
-36.52998	452.2515	42.1316
-36.5295	458.372	42.1511
-36.5265	458.252	42.1707
-36.5259	453.175	42.1902
-36.5248	455.933	42.2097
-36.5225	460.088	42.2292
-36.5212	449.167	42.2488
-36.5195	450.463	42.2683
-36.5174	451.3689	42.2878
-36.5127	-23.2812	42.3074
-36.5118	-61.5821	42.3269
-36.5116	-34.3647	42.3464
-36.5111	-41.261	42.366
-36.5091	-44.6726	42.3855
-36.5081	-40.5251	42.405
-36.5062	-41.2121	42.4246
-36.50491	-44.4399	42.4441
-36.5024	-41.9635	42.4636
-36.5013	-38.4883	42.4832
-36.4987	-44.9399	42.5027
-36.4976	-44.5345	42.5222
-36.4964	-38.816	42.5417
-36.49453	-42.367	42.5613
-36.4926	-46.8749	42.5808
-36.4913	-37.6947	42.6003
-36.4899	-42.6934	42.6199
-36.4872	-45.41526	42.6394
-36.486	-39.5967	42.6589
-36.48521	-38.9309	42.6785
-36.4823	-47.6691	42.698
-36.4825	-39.7198	42.7175
-36.48064	-40.5763	42.7371
-36.4779	-45.0478	42.7566
-36.4771	-41.73518	42.7761
-36.4765	-36.7468	42.7957
-36.47427	-45.4403	42.8152
-36.4711	-43.0891	42.8347
-36.4706	-41.0357	42.8542
-36.4688	-44.01881	42.8738
-36.4676	-43.3867	42.8933
-36.4658	-39.0351	42.9128
-36.4635	-42.5982	42.9324
-36.4624	-45.5693	42.9519
-36.4603	-40.17128	42.9714
-36.4581	-41.5365	42.991
-36.4577	-44.9413	43.0105
-36.4554	-42.9299	43.03
-36.4545	-41.6766	43.0496
-36.4529	-45.4751	43.0691
-36.45071	-43.7245	43.0886
-36.4485	-39.9967	43.1082
-36.4486	-42.077	43.1277
-36.4463	-46.06216	43.1472
-36.4439	-37.2449	43.1667
-36.4426	-44.3447	43.1863
-36.4411	-44.94701	43.2058
-36.4388	-39.6546	43.2253
-36.4388	-39.0636	43.2449
-36.4366	-48.06	43.2644
-36.43523	-40.0046	43.2839
-36.4332	-42.7831	43.3035
-36.4314	-45.6298	43.323
-36.4292	-41.4391	43.3425
-36.4283	-38.7796	43.3621
-36.4257	-47.6028	43.3816
-36.4246	-41.4348	43.4011
-36.4231	-39.586	43.4207
-36.421	-45.0894	43.4402
-36.4195	-44.2869	43.4597
-36.4179	-38.8814	43.4792
-36.41674	-45.2975	43.4988
-36.4152	-43.9743	43.5183
-36.41423	-41.0727	43.5378
-36.4124	-44.0736	43.5574
-36.4105	-45.2551	43.5769
-36.4085	-40.55732	43.5964
-36.408	-42.9581	43.616
-36.4056	-47.2178	43.6355
-36.4036	-42.1107	43.655
-36.4019	-40.1921	43.6746
-36.401	-44.0192	43.6941
-36.399	-44.8663	43.7136
-36.3969	-38.5944	43.7332
-36.3954	-45.4421	43.7527
-36.3942	-42.5087	43.7722
-36.3914	-40.0595	43.7917
-36.3903	-42.9429	43.8113
-36.3886	-46.9179	43.8308
-36.3862	-37.3234	43.8503
-36.3862	-43.01516	43.8699
-36.3845	-46.3338	43.8894
-36.3831	-40.2896	43.9089
-36.3805	-38.9832	43.9285
-36.3799	-47.6046	43.948
-36.3775	-39.2815	43.9675
-36.3758	-41.6662	43.9871
-36.3742	-44.5811	44.0066
-36.3736	-40.7974	44.0261
-36.3708	-38.3913	44.0457
-36.3695	-47.446	44.0652
-36.368	-43.3538	44.0847
-36.3667	-39.8177	44.1042
-36.3649	-43.225	44.1238
-36.3625	-44.8882	44.1433
-36.3613	-40.6007	44.1628
-36.35973	-43.6822	44.1824
-36.3583	-45.0519	44.2019
-36.3566	-40.3642	44.2214
-36.3552	-42.296	44.241
-36.3522	-46.1908	44.2605
-36.3516	-42.0711	44.28
-36.349	-40.8242	44.2996
-36.3487	-46.8341	44.3191
-36.3464	-43.72073	44.3386
-36.3445	-40.2092	44.3582
-36.3439	-41.7638	44.3777
-36.3417	-46.6631	44.3972
-36.3413	-38.1457	44.4167
-36.3387	-45.5649	44.4363
-36.3364	-44.0816	44.4558
-36.3357	-39.8948	44.4753
-36.3342	-40.7781	44.4949

File: 0.254_hd_uprint_typei_090_r(1).dat
MTS793|BTW|ENU|1|2|.|/|:|1|0|0|A

Data Header:			0.254_hd_uprint_typei_090_r0			Time:	20.0259	s	4/15/2019 3:48:13 PM
Data Acquisition:	Timed
Station Name:	ft40.cfg
Test File Name:	monotonic_0.2540_typei_hd_090_uprint.tst
Displacement	Force	Running Time
mm	N	s
9.98011	-154.22	0.0302734
9.98143	-157.278	0.0986328
9.98693	-152.394	0.166992
9.99266	-146.334	0.235352
9.997838	-145.336	0.303711
10.0033	-142.894	0.37207
10.0088	-141.374	0.44043
10.0141	-141.722	0.508789
10.021	-144.824	0.577148
10.0266	-140.464	0.645508
10.0315	-134.607	0.713867
10.03829	-129.969	0.782227
10.04381	-124.023	0.850586
10.0494	-118.224	0.918945
10.0552	-116.063	0.987305
10.0609	-111.27	1.05566
10.0669	-109.066	1.12402
10.0716	-109.964	1.19238
10.0782	-111.834	1.26074
10.0826	-108.813	1.3291
10.0887	-103.283	1.39746
10.0945	-100.422	1.46582
10.1002	-94.22831	1.53418
10.1052	-86.5401	1.60254
10.1126	-83.73822	1.6709
10.1183	-77.93718	1.73926
10.1239	-76.96788	1.80762
10.1288	-77.5952	1.87598
10.1348	-77.8406	1.94434
10.1404	-74.5852	2.0127
10.1465	-70.332	2.08105
10.15154	-69.4343	2.14941
10.1573	-62.64481	2.21777
10.1638	-56.2879	2.28613
10.1692	-50.7314	2.35449
10.175	-44.7507	2.42285
10.1799	-41.1365	2.49121
10.1856	-43.4416	2.55957
10.1917	-39.7887	2.62793
10.198	-37.0313	2.69629
10.2036	-37.3157	2.76465
10.2089	-35.8485	2.83301
10.2138	-28.667	2.90137
10.2199	-26.6185	2.96973
10.2246	-19.9006	3.03809
10.232	-12.0741	3.10645
10.2369	-6.71758	3.1748
10.2428	-8.06506	3.24316
10.24906	-4.38853	3.31152
10.25454	-0.882973	3.37988
10.2602	-4.65602	3.44824
10.2657	-1.02933	3.5166
10.271	3.5302	3.58496
10.2763	7.29131	3.65332
10.2828	13.8812	3.72168
10.2885	22.0078	3.79004
10.2942	25.9826	3.8584
10.2999	25.6995	3.92676
10.3056	32.1715	3.99512
10.3106	35.7881	4.06348
10.3164	33.2925	4.13184
10.3228	33.70118	4.2002
10.328	37.19664	4.26855
10.3335	41.1384	4.33691
10.3394	45.71056	4.40527
10.346	52.9806	4.47363
10.3514	58.6026	4.54199
10.3563	60.8338	4.61035
10.3623	67.58844	4.67871
10.369	73.0656	4.74707
10.3747	68.6669	4.81543
10.3803	71.4168	4.88379
10.38519	75.0395	4.95215
10.39117	76.4911	5.02051
10.3962	80.4587	5.08887
10.4034	88.8017	5.15723
10.4079	91.7527	5.22559
10.4136	96.0215	5.29395
10.4197	102.334	5.3623
10.4253	107.3922	5.43066
10.4306	107.025	5.49902
10.43668	108.609	5.56738
10.4421	109.783	5.63574
10.4479	112.614	5.7041
10.4534	115.539	5.77246
10.4588	119.867	5.84082
10.4649	124.679	5.90918
10.4702	127.6	5.97754
10.47603	135.469	6.0459
10.4824	139.823	6.11426
10.4879	142.435	6.18262
10.4938	143.333	6.25098
10.5002	145.465	6.31934
10.505	145.049	6.3877
10.5109	149.842	6.45605
10.5161	152.078	6.52441
10.5228	155.085	6.59277
10.5279	158.869	6.66113
10.5335	168.634	6.72949
10.5395	172.447	6.79785
10.5446	175.576	6.86621
10.5503	178.686	6.93457
10.5563	178.942	7.00293
10.5619	179.652	7.07129
10.5684	182.722	7.13965
10.573	183.5108	7.20801
10.5778	184.211	7.27637
10.5847	192.283	7.34473
10.5902	201.122	7.41309
10.5953	204.7827	7.48145
10.6023	208.878	7.5498
10.6085	214.829	7.61816
10.6134	211.874	7.68652
10.6189	215.4624	7.75488
10.62498	217.499	7.82324
10.63	217.377	7.8916
10.6359	218.705	7.95996
10.6414	224.041	8.02832
10.6471	233.166	8.09668
10.6529	235.836	8.16504
10.6581	241.792	8.2334
10.664	248.069	8.30176
10.6705	248.218	8.37012
10.6765	250.272	8.43848
10.6819	253.94	8.50684
10.6874	251.344	8.5752
10.6912	249.979	8.64355
10.6985	256.997	8.71191
10.7049	264.411	8.78027
10.7107	269.394	8.84863
10.716	275.3511	8.91699
10.7205	281.4921	8.98535
10.7273	284.087	9.05371
10.7314	286.093	9.12207
10.7381	286.75	9.19043
10.74384	286.861	9.25879
10.7488	285.8663	9.32715
10.7554	289.795	9.39551
10.761	298.105	9.46387
10.7668	300.975	9.53223
10.7724	306.76	9.60059
10.7789	312.293	9.66895
10.78475	317.407	9.7373
10.7893	319.784	9.80566
10.79539	323.172	9.87402
10.8021	320.725	9.94238
10.8071	319.702	10.0107
10.8128	323.2363	10.0791
10.8178	328.106	10.1475
10.8243	331.331	10.21582
10.8294	337.339	10.28418
10.8355	344.586	10.3525
10.8404	351.156	10.4209
10.8463	355.319	10.4893
10.852	356.126	10.5576
10.85896	355.698	10.626
10.8626	355.032	10.6943
10.8684	358.412	10.7627
10.8753	361.626	10.8311
10.8807	361.6813	10.8994
10.8859	369.368	10.9678
10.8926	374.707	11.0361
10.8977	381.283	11.1045
10.9042	387.941	11.1729
10.9092	390.136	11.2412
10.9146	387.442	11.30957
10.9207	389.625	11.37793
10.9264	391.9588	11.4463
10.9326	391.35	11.5146
10.9369	393.606	11.583
10.9431	400.714	11.6514
10.9489	402.96	11.7197
10.9549	411.442	11.7881
10.9603	419.5856	11.8564
10.9655	421.02	11.9248
10.9713	420.443	11.9932
10.9772	422.92	12.0615
10.9827	427.85	12.1299
10.989	425.475	12.1982
10.9945	426.313	12.2666
11.0006	431.559	12.335
11.006	432.463	12.40332
11.01144	440.655	12.47168
11.0173	448.106	12.54
11.0226	452.988	12.6084
11.0275	452.8165	12.6768
11.035	457.446	12.7451
11.0393	460.42	12.8135
11.0459	459.224	12.8818
11.0506	458.903	12.9502
11.0568	462.514	13.0186
11.0627	463.728	13.0869
11.068	469.382	13.1553
11.0739	477.369	13.2236
11.0803	480.893	13.292
11.0862	483.655	13.3604
11.0905	491.648	13.4287
11.0979	493.351	13.49707
11.1026	490.756	13.56543
11.10845	493.378	13.6338
11.1136	494.781	13.7021
11.1199	495.636	13.7705
11.1257	497.788	13.8389
11.13113	506.77	13.9072
11.1371	509.608	13.9756
11.1427	514.229	14.0439
11.149	519.695	14.1123
11.1541	523.867	14.1807
11.1596	525.302	14.249
11.1658	525.214	14.3174
11.1718	525.405	14.3857
11.1771	525.593	14.4541
11.1825	529.571	14.5225
11.1878	531.921	14.59082
11.1941	535.919	14.65918
11.1977	542.951	14.7275
11.2048	551.058	14.7959
11.2119	555.573	14.8643
11.2175	556.1828	14.9326
11.2224	558.576	15.001
11.2283	556.948	15.0693
11.2331	556.904	15.1377
11.2398	558.65	15.2061
11.2452	561.272	15.2744
11.2512	564.331	15.3428
11.2566	569.67	15.4111
11.26214	579.542	15.4795
11.2677	583.148	15.5479
11.2728	585.088	15.6162
11.2799	587.914	15.68457
11.28564	587.256	15.75293
11.2911	586.5083	15.8213
11.2961	587.7934	15.8896
11.3022	589.7135	15.958
11.30739	587.702	16.0264
11.3137	597.159	16.0947
11.3195	608.154	16.1631
11.3254	608.674	16.2314
11.3298	615.322	16.2998
11.3369	619.976	16.3682
11.3407	617.107	16.4365
11.3487	617.636	16.5049
11.3542	618.249	16.5732
11.35986	617.797	16.6416
11.3647	616.4314	16.71
11.3705	622.584	16.77832
11.3749	633.226	16.84668
11.3812	635.504	16.915
11.3867	641.736	16.9834
11.3932	647.495	17.0518
11.3999	645.487	17.1201
11.40452	646.484	17.1885
11.41	647.696	17.2568
11.41658	646.125	17.3252
11.4226	645.1225	17.3936
11.4276	649.259	17.4619
11.4325	658.809	17.5303
11.4393	661.973	17.5986
11.4448	667.843	17.667
11.45009	674.061	17.7354
11.4563	674.458	17.8037
11.46184	675.04	17.87207
11.4676	678.349	17.94043
11.4727	676.238	18.0088
11.4788	673.012	18.0771
11.4844	676.807	18.1455
11.49091	684.172	18.2139
11.49567	687.6402	18.2822
11.5025	691.966	18.3506
11.5075	697.813	18.4189
11.5145	701.931	18.4873
11.5189	705.552	18.5557
11.5255	704.624	18.624
11.5296	702.333	18.6924
11.5357	700.265	18.7607
11.5421	704.121	18.8291
11.5474	706.895	18.8975
11.55316	711.4646	18.96582
11.5582	715.638	19.03418
11.5643	721.954	19.1025
11.5707	728.247	19.1709
11.5749	730.8114	19.2393
11.5811	732.321	19.3076
11.58742	729.134	19.376
11.59305	729.246	19.4443
11.5978	731.558	19.5127
11.6037	729.273	19.5811
11.6096	733.056	19.6494
11.6155	741.276	19.7178
11.6208	743.714	19.7861
11.6256	750.515	19.8545
[...]
12.7989	834.417	33.9072
12.8036	837.837	33.9756
12.8093	837.9671	34.0439
12.81424	840.953	34.1123
12.8199	842.6	34.1807
12.8265	838.463	34.249
12.8313	837.066	34.3174
12.8375	833.464	34.3857
12.8441	831.349	34.4541
12.84966	830.606	34.5225
12.8538	831.698	34.59082
12.8605	831.687	34.65918
12.8657	836.6	34.7275
12.87086	839.65	34.7959
12.8779	840.031	34.8643
12.8842	838.773	34.9326
12.8892	838.4649	35.001
12.8952	833.268	35.0693
12.89995	829.367	35.1377
12.9059	828.899	35.2061
12.911	830.952	35.2744
12.9173	827.642	35.3428
12.9231	831.3576	35.4111
12.929	837.74	35.4795
12.934	838.128	35.5479
12.94103	837.935	35.6162
12.9465	839.092	35.68457
12.9525	834.099	35.75293
12.9579	830.802	35.8213
12.9621	829.689	35.8896
12.9673	828.674	35.958
12.9741	826.829	36.0264
12.98	828.047	36.0947
12.9858	834.899	36.1631
12.9916	836.078	36.2314
12.9974	837.579	36.2998
13.0032	839.863	36.3682
13.009	834.97	36.4365
13.0138	831.488	36.5049
13.0201	830.177	36.5732
13.0256	828.268	36.6416
13.0307	821.578	36.71
13.0371	825.274	36.77832
13.0423	831.827	36.84668
13.0486	833.553	36.915
13.0531	835.796	36.9834
13.0599	838.53	37.0518
13.0653	836.18	37.1201
13.0709	832.173	37.1885
13.0772	830.784	37.2568
13.083	825.42	37.3252
13.08739	820.967	37.3936
13.0943	819.706	37.4619
13.1004	828.97	37.5303
13.1058	830.734	37.5986
13.111	831.927	37.667
13.1163	834.201	37.7354
13.1228	834.175	37.8037
13.12804	832.064	37.87207
13.1333	826.893	37.94043
13.1394	822.128	38.0088
13.14569	816.387	38.0771
13.1504	814.144	38.1455
13.15793	-47.8958	38.2139
13.1638	-44.4045	38.2822
13.16793	-45.3454	38.3506
13.1755	-41.7772	38.4189
13.1799	-39.26165	38.4873
13.1859	-39.8177	38.5557
13.19065	-40.724	38.624
13.1974	-46.9314	38.6924
13.2033	-50.7895	38.7607
13.2076	-50.196	38.8291
13.214	-48.7582	38.8975
13.2199	-50.1267	38.96582
13.2255	-45.45129	39.03418
13.2323	-41.7279	39.1025
13.237	-41.5652	39.1709
13.2427	-39.9709	39.2393
13.2487	-40.0649	39.3076
13.2542	-44.6213	39.376
13.2596	-50.42112	39.4443
13.2656	-49.4036	39.5127
13.2701	-49.5025	39.5811
13.277	-51.7644	39.6494
13.28223	-47.3529	39.7178
13.288	-43.7423	39.7861
13.2934	-43.2564	39.8545
13.2989	-40.85881	39.9229
13.30479	-36.5015	39.9912
13.3074	-49.7541	40.0205

Data Header:			0.254_hd_uprint_typei_090_r0			Time:	40.50415	s	4/15/2019 3:48:33 PM
Data Acquisition:	Timed
Station Name:	ft40.cfg
Test File Name:	monotonic_0.2540_typei_hd_090_uprint.tst
Displacement	Force	Running Time
mm	N	s
13.30859	-47.1492	40.0303
13.3097	-42.7898	40.04
13.31	-41.3755	40.0498
13.3112	-43.3205	40.05957
13.3118	-44.2925	40.0693
13.31339	-52.6763	40.0791
13.3134	-48.6886	40.0889
13.314	-46.2121	40.0986
13.3147	-41.5452	40.1084
13.3151	-39.2214	40.1182
13.3165	-47.5976	40.12793
13.3179	-49.7711	40.1377
13.3189	-49.7415	40.1475
13.31866	-45.4732	40.1572
13.3201	-43.3837	40.167
13.3204	-43.07465	40.1768
13.3218	-40.4096	40.1865
13.3221	-47.0425	40.1963
13.3237	-52.1845	40.2061
13.3235	-48.1822	40.21582
13.326	-43.9483	40.2256
13.326	-40.0419	40.2354
13.3268	-45.0455	40.2451
13.3266	-44.9776	40.2549
13.327	-48.9424	40.2646
13.329	-48.8129	40.2744
13.3296	-48.0433	40.28418
13.3302	-43.31731	40.2939
13.3308	-39.2592	40.3037
13.3315	-42.7486	40.3135
13.333	-47.3289	40.3232
13.3333	-50.9845	40.333
13.3344	-48.0518	40.3428
13.3358	-42.3711	40.3525
13.3361	-43.8451	40.3623
13.3368	-40.2056	40.37207
13.3374	-45.3274	40.3818
13.3383	-47.7234	40.3916
13.3387	-48.8322	40.4014
13.341	-49.4777	40.4111
13.34	-41.0917	40.4209
13.3422	-39.6931	40.4307
13.3417	-45.2942	40.44043
13.3429	-51.3532	40.4502
13.3433	-52.6019	40.46
13.34401	-46.2177	40.4697
13.3463	-44.3818	40.4795
13.3455	-39.1888	40.4893
13.3468	-41.3189	40.499