Folder: Stress_Strain_Analysis_Tools/data/processed_data_files/tensile (part 45)

File: 0.254_solid_uprint_typei_090_r(6).dat
MTS793|BTW|ENU|1|2|.|/|:|1|0|0|A

Data Header:			0.254_solid_uprint_typei_090_r0			Time:	20.0276	s	4/15/2019 3:01:16 PM
Data Acquisition:	Timed
Station Name:	ft40.cfg
Test File Name:	monotonic_0.2540_typei_solid_090_uprint.tst
Displacement	Force	Running Time
mm	N	s
9.980979	-119.229	0.0322266
9.98394	-116.749	0.100586
9.9896	-115.441	0.168945
9.99711	-113.409	0.237305
10.00096	-110.822	0.305664
10.0065	-107.826	0.374023
10.0125	-106.913	0.442383
10.0188	-104.82	0.510742
10.0238	-98.3016	0.579102
10.029	-94.1211	0.647461
10.035	-85.5884	0.71582
10.0408	-78.32518	0.78418
10.0467	-74.2817	0.852539
10.0525	-75.07814	0.920898
10.0568	-69.5555	0.989258
10.0635	-64.5053	1.05762
10.0698	-67.5668	1.12598
10.07601	-65.5745	1.19434
10.08082	-59.3479	1.2627
10.0852	-55.793	1.33105
10.0928	-50.0476	1.39941
10.0974	-40.8669	1.46777
10.1041	-37.4154	1.53613
10.1098	-34.7068	1.60449
10.1142	-31.2898	1.67285
10.1211	-23.8559	1.74121
10.1266	-24.9293	1.80957
10.1322	-25.4655	1.87793
10.1367	-19.5531	1.94629
10.1433	-17.1007	2.01465
10.1487	-11.8094	2.08301
10.1548	-4.1129	2.15137
10.1609	2.66436	2.21973
10.1653	5.04544	2.28809
10.17269	8.08248	2.35645
10.1772	15.661	2.4248
10.183	17.5593	2.49316
10.1891	16.0251	2.56152
10.1945	20.5013	2.62988
10.2008	21.88472	2.69824
10.20578	28.6274	2.7666
10.2116	32.4234	2.83496
10.2178	40.8586	2.90332
10.2236	44.6939	2.97168
10.2287	49.7588	3.04004
10.2349	56.9382	3.1084
10.24047	57.3995	3.17676
10.2467	59.2651	3.24512
10.25187	59.4852	3.31348
10.2573	61.2237	3.38184
10.2627	66.9513	3.4502
10.2685	73.1614	3.51855
10.2742	79.0271	3.58691
10.2799	81.3181	3.65527
10.2854	90.1051	3.72363
10.2916	95.93605	3.79199
10.2962	99.1801	3.86035
10.3029	100.395	3.92871
10.3089	103.1498	3.99707
10.3144	102.347	4.06543
10.3199	107.235	4.13379
10.3258	111.462	4.20215
10.332	115.0835	4.27051
10.3378	119.225	4.33887
10.3427	127.675	4.40723
10.3482	137.096	4.47559
10.3547	137.544	4.54395
10.36003	140.208	4.6123
10.3662	145.05	4.68066
10.3718	143.961	4.74902
10.3775	145.981	4.81738
10.3827	150.293	4.88574
10.3881	150.8425	4.9541
10.3958	152.8033	5.02246
10.3992	159.527	5.09082
10.406	169.862	5.15918
10.4112	172.505	5.22754
10.41655	176.565	5.2959
10.4237	181.021	5.36426
10.4292	180.625	5.43262
10.4342	182.464	5.50098
10.4399	186.536	5.56934
10.4447	189.26	5.6377
10.4518	189.622	5.70605
10.4567	196.602	5.77441
10.4629	208.087	5.84277
10.4682	213.376	5.91113
10.4737	215.649	5.97949
10.4796	222.935	6.04785
10.4849	223.108	6.11621
10.4908	224.767	6.18457
10.4962	226.1498	6.25293
10.5018	230.267	6.32129
10.507	229.46	6.38965
10.514	234.442	6.45801
10.5195	244.055	6.52637
10.5245	250.369	6.59473
10.5316	257.017	6.66309
10.5374	261.111	6.73145
10.542	265.664	6.7998
10.54894	266.0097	6.86816
10.5533	266.719	6.93652
10.5603	268.954	7.00488
10.5646	269.237	7.07324
10.57	271.773	7.1416
10.5756	281.12	7.20996
10.5822	288.035	7.27832
10.5871	294.362	7.34668
10.5942	299.06	7.41504
10.5991	301.985	7.4834
10.6041	306.732	7.55176
10.6111	308.457	7.62012
10.6166	309.1705	7.68848
10.622	307.547	7.75684
10.6279	310.622	7.8252
10.6338	318.789	7.89355
10.638	322.989	7.96191
10.6453	329.961	8.03027
10.6499	336.631	8.09863
10.656	341.393	8.16699
10.6619	344.382	8.23535
10.6681	347.892	8.30371
10.6733	349.292	8.37207
10.6784	346.142	8.44043
10.6859	347.954	8.50879
10.6902	356.425	8.57715
10.6956	359.822	8.64551
10.7019	365.883	8.71387
10.708	373.496	8.78223
10.7129	380.357	8.85059
10.7182	381.747	8.91895
10.72487	388.022	8.9873
10.73029	390.056	9.05566
10.7362	387.412	9.12402
10.7406	384.879	9.19238
10.7472	391.884	9.26074
10.7513	397.826	9.3291
10.7588	399.895	9.39746
10.7644	408.702	9.46582
10.7703	417.474	9.53418
10.7764	422.6788	9.60254
10.7816	425.921	9.6709
10.7876	430.069	9.73926
10.7929	426.617	9.80762
10.79846	424.987	9.87598
10.8043	429.301	9.94434
10.8099	434.3996	10.0127
10.81534	436.87	10.0811
10.8215	444.878	10.1494
10.827	452.001	10.2178
10.8325	457.889	10.2861
10.8382	463.923	10.3545
10.84447	467.06	10.4229
10.8501	467.4953	10.4912
10.8549	466.177	10.55957
10.86089	467.0087	10.62793
10.8662	469.219	10.6963
10.8728	474.262	10.7646
10.8788	478.76	10.833
10.8837	486.407	10.9014
10.8889	492.64	10.9697
10.895	500.785	11.0381
10.901	503.849	11.1064
10.9065	505.136	11.1748
10.91245	504.63	11.2432
10.9172	505.893	11.3115
10.9241	506.9834	11.3799
10.9295	508.947	11.4482
10.9352	514.081	11.5166
10.9401	518.019	11.585
10.9465	526.282	11.65332
10.9522	535.798	11.72168
10.95742	540.887	11.79
10.9643	541.503	11.8584
10.969	541.308	11.9268
10.97512	545.978	11.9951
10.9802	546.649	12.0635
10.9863	545.944	12.1318
10.9924	550.009	12.2002
10.9977	554.92	12.2686
11.0033	558.643	12.3369
11.0092	567.136	12.4053
11.0146	575.992	12.4736
11.02053	577.661	12.542
11.02667	576.338	12.6104
11.0324	580.037	12.6787
11.03737	583.432	12.74707
11.04383	580.945	12.81543
11.0492	584.151	12.8838
11.0557	588.509	12.9521
11.0603	592.06	13.0205
11.0666	600.335	13.0889
11.0721	608.887	13.1572
11.0772	612.274	13.2256
11.0832	612.317	13.2939
11.089	617.52	13.3623
11.0949	620.75	13.4307
11.101	617.6767	13.499
11.10655	618.292	13.5674
11.1114	621.6792	13.6357
11.1175	626.5437	13.7041
11.1243	631.638	13.7725
11.12858	639.559	13.84082
11.1352	645.8512	13.90918
11.13939	648.005	13.9775
11.146	650.763	14.0459
11.1517	655.9267	14.1143
11.1568	654.183	14.1826
11.1633	654.936	14.251
11.1687	655.628	14.3193
11.1751	659.233	14.3877
11.1803	664.82	14.4561
11.1854	672.2052	14.5244
11.1914	676.075	14.5928
11.1965	680.46	14.6611
11.2031	686.214	14.7295
11.2088	692.428	14.7979
11.215	689.154	14.8662
11.2189	690.056	14.93457
11.2265	691.411	15.00293
11.2308	691.297	15.0713
11.2366	697.372	15.1396
11.2421	703.7937	15.208
11.249	707.539	15.2764
11.2551	711.341	15.3447
11.2604	719.27	15.4131
11.26529	724.784	15.4814
11.2707	722.881	15.5498
11.277	725.264	15.6182
11.2821	726.174	15.6865
11.288	724.186	15.7549
11.294	727.693	15.8232
11.2989	733.507	15.8916
11.3057	735.841	15.96
11.3107	739.186	16.02832
11.3169	746.567	16.09668
11.3233	756.3869	16.165
11.3274	756.207	16.2334
11.334	757.835	16.3018
11.3404	761.161	16.3701
11.3443	759.138	16.4385
11.3508	759.313	16.5068
11.356	762.934	16.5752
11.3627	769.949	16.6436
11.3675	768.769	16.7119
11.3734	775.832	16.7803
11.3795	786.008	16.8486
11.3853	788.533	16.917
11.3914	789.808	16.9854
11.397	791.686	17.0537
11.4022	790.7038	17.12207
11.40762	793.386	17.19043
11.4145	791.989	17.2588
11.4187	795.373	17.3271
11.4244	800.188	17.3955
11.4305	804.272	17.4639
11.4358	812.792	17.5322
11.4421	818.428	17.6006
11.4481	820.187	17.6689
11.454	823.513	17.7373
11.4587	823.166	17.8057
11.464	822.99	17.874
11.4704	823.437	17.9424
11.4775	824.914	18.0107
11.4815	826.161	18.0791
11.4875	830.675	18.1475
11.49361	838.679	18.21582
11.499	844.654	18.28418
11.505	848.495	18.3525
11.5107	851.932	18.4209
11.5164	852.39	18.4893
11.5217	852.855	18.5576
11.5275	852.754	18.626
11.5344	853.605	18.6943
11.5393	853.587	18.7627
11.5443	855.86	18.8311
11.5496	865.05	18.8994
11.5554	868.667	18.9678
11.5615	873.9472	19.0361
11.56689	879.984	19.1045
11.5729	880.821	19.1729
11.5791	880.19	19.2412
11.58447	881.788	19.30957
11.5893	881.2243	19.37793
11.5959	878.373	19.4463
11.6013	879.626	19.5146
11.6066	887.764	19.583
11.6131	893.709	19.6514
11.6188	895.992	19.7197
11.6241	903.37	19.7881
11.6304	907.846	19.8564
11.63608	904.696	19.9248
11.6412	906.062	19.9932
[...]
12.00973	978.675	24.4072
12.01241	970.773	24.4463
12.0155	979.269	24.4854
12.0196	973.017	24.5244
12.0214	973.095	24.5635
12.0255	981.9303	24.6025
12.0284	970.62	24.6416
12.03157	978.347	24.6807
12.0342	978.061	24.7197
12.0392	970.075	24.7588
12.0409	977.0144	24.7979
12.0448	972.7807	24.8369
12.0487	970.486	24.876
12.0516	978.407	24.915
12.0555	968.574	24.9541
12.0576	971.928	24.9932
12.0616	973.902	25.0322
12.0642	965.41	25.0713
12.0677	976.51	25.1104
12.0708	968.096	25.1494
12.075	969.96	25.1885
12.0771	976.375	25.2275
12.0809	962.561	25.2666
12.0835	972.021	25.3057
12.08788	971.699	25.3447
12.08954	962.373	25.3838
12.0947	971.857	25.4229
12.097	968.8797	25.4619
12.1011	963.595	25.501
12.1035	972.449	25.54
12.1073	964.4	25.5791
12.1095	967.327	25.6182
12.1136	969.622	25.6572
12.1166	961.764	25.6963
12.1193	969.826	25.7354
12.1229	963	25.7744
12.1273	965.486	25.8135
12.1306	970.301	25.8525
12.1333	962.036	25.8916
12.1363	970.043	25.9307
12.14	968.851	25.9697
12.1424	960.209	26.0088
12.1463	970.865	26.0479
12.1497	963.252	26.0869
12.153	961.144	26.126
12.1561	970.555	26.165
12.1586	958.496	26.2041
12.163	966.295	26.2432
12.16486	964.771	26.2822
12.1684	959.293	26.3213
12.1717	965.924	26.3604
12.1752	960.959	26.3994
12.1786	958.562	26.4385
12.1831	965.072	26.4775
12.1846	954.591	26.5166
12.1874	960.31	26.5557
12.1924	964.379	26.5947
12.1963	951.871	26.6338
12.19784	963.826	26.6729
12.201	956.305	26.7119
12.2054	953.852	26.751
12.2083	962.358	26.79
12.2121	954.228	26.8291
12.2133	955.451	26.8682
12.2182	957.603	26.9072
12.2204	953.663	26.9463
12.2235	957.607	26.9854
12.2269	954.367	27.0244
12.2311	952.063	27.0635
12.2339	956.637	27.1025
12.2373	946.835	27.1416
12.2404	952.481	27.1807
12.2433	948.666	27.2197
12.2516	-42.1824	27.2588
12.2522	-36.1982	27.2979
12.2541	-43.8959	27.3369
12.2572	-44.079	27.376
12.2619	-34.8901	27.415
12.26363	-44.3085	27.4541
12.26744	-40.09642	27.4932
12.271	-39.1197	27.5322
12.2738	-46.01873	27.5713
12.2774	-35.1598	27.6104
12.2795	-41.0176	27.6494
12.2843	-43.534	27.6885
12.2868	-35.5014	27.7275
12.2889	-47.3235	27.7666
12.2926	-39.9374	27.8057
12.2958	-39.3631	27.8447
12.2998	-47.4834	27.8838
12.3025	-35.9442	27.9229
12.3071	-44.23135	27.9619
12.3096	-45.8581	28.001
12.3124	-36.8736	28.04
12.3153	-43.6384	28.0791
12.3178	-43.0153	28.1182
12.3222	-39.9505	28.1572
12.32545	-44.39941	28.1963
12.3293	-40.11121	28.2354
12.3319	-42.9176	28.2744
12.3346	-44.1213	28.3135
12.3386	-37.239	28.3525
12.3411	-47.92907	28.3916
12.3454	-36.3371	28.4307
12.3471	-41.4655	28.4697
12.3516	-46.1247	28.5088
12.35502	-36.4594	28.5479
12.3576	-43.59882	28.5869
12.361	-42.45787	28.626
12.3649	-34.5986	28.665
12.3676	-44.0478	28.7041
12.3723	-40.2293	28.7432
12.374	-37.141	28.7822
12.3772	-46.6746	28.8213
12.3806	-36.0829	28.8604
12.3833	-41.0756	28.8994
12.388	-41.9986	28.9385
12.3902	-35.2938	28.9775
12.3942	-43.7101	29.0166
12.3966	-39.6187	29.0557
12.4	-40.8917	29.0947
12.4036	-46.5538	29.1338
12.40653	-38.1619	29.1729
12.4092	-44.6141	29.2119
12.4138	-44.1739	29.251
12.4162	-37.6007	29.29
12.4198	-48.4071	29.3291
12.423	-44.4194	29.3682
12.4263	-41.0901	29.4072
12.4308	-46.0905	29.4463
12.4333	-40.0919	29.4854
12.4367	-43.8993	29.5244
12.44	-42.7297	29.5635
12.4431	-40.8001	29.6025
12.445	-47.8645	29.6416
12.4496	-39.6865	29.6807
12.4519	-42.7519	29.7197
12.4555	-46.2946	29.7588
12.4598	-35.9668	29.7979
12.4618	-45.7764	29.8369
12.4651	-44.5823	29.876
12.4693	-34.3152	29.915
12.4716	-46.9546	29.9541
12.4751	-36.7687	29.9932
12.4786	-37.2948	30.0322
12.481	-45.6485	30.0713
12.4843	-35.8165	30.1104
12.4886	-41.1929	30.1494
12.4925	-42.9562	30.1885
12.4935	-40.0234	30.2178

File: 0.254_solid_uprint_typei_4545_r(1).dat
MTS793|BTW|ENU|1|2|.|/|:|1|0|0|A

Data Header:			0.254_solid_uprint_typei_4545_r0			Time:	20.0222	s	4/14/2019 4:17:34 AM
Data Acquisition:	Timed
Station Name:	ft40.cfg
Test File Name:	monotonic_0.2540_typei_solid_4545_uprint.tst
Displacement	Force	Running Time
mm	N	s
9.95245	-123.844	0.0263672
9.95462	-112.811	0.0947266
9.96046	-105.348	0.163086
9.96716	-99.32	0.231445
9.9722	-97.5127	0.299805
9.97729	-102.995	0.368164
9.98298	-110.845	0.436523
9.98878	-111.921	0.504883
9.99441	-109.916	0.573242
10.0011	-109.117	0.641602
10.0061	-101.267	0.709961
10.0117	-89.3935	0.77832
10.0187	-78.903	0.84668
10.0243	-69.234	0.915039
10.0298	-63.5691	0.983398
10.0352	-66.5139	1.05176
10.0406	-70.0246	1.12012
10.0473	-70.6725	1.18848
10.05321	-73.23555	1.25684
10.0582	-75.0069	1.3252
10.0645	-69.1642	1.39355
10.0692	-63.267	1.46191
10.0751	-48.3145	1.53027
10.0805	-38.9686	1.59863
10.0865	-31.619	1.66699
10.0933	-29.3177	1.73535
10.0979	-30.3705	1.80371
10.104	-30.0373	1.87207
10.10976	-35.5108	1.94043
10.1162	-39.1651	2.00879
10.1212	-36.4759	2.07715
10.1276	-31.6857	2.14551
10.1337	-19.7151	2.21387
10.1389	-8.30949	2.28223
10.1441	0.354367	2.35059
10.1497	5.42282	2.41895
10.1558	8.865303	2.4873
10.1631	9.85071	2.55566
10.168	3.68538	2.62402
10.1736	1.38476	2.69238
10.1786	0.18668	2.76074
10.1855	1.35401	2.8291
10.1901	9.54496	2.89746
10.19635	22.5373	2.96582
10.2019	31.39653	3.03418
10.2087	37.9992	3.10254
10.21242	46.9602	3.1709
10.219	50.0193	3.23926
10.22463	45.432	3.30762
10.2303	44.03767	3.37598
10.23542	38.6457	3.44434
10.2415	37.0927	3.5127
10.2471	43.2756	3.58105
10.2538	54.12463	3.64941
10.25961	60.8386	3.71777
10.265	70.613	3.78613
10.2713	81.0484	3.85449
10.2765	87.91967	3.92285
10.28136	85.8737	3.99121
10.2873	82.7439	4.05957
10.2934	81.7444	4.12793
10.2993	75.1509	4.19629
10.3045	78.5369	4.26465
10.3111	84.31	4.33301
10.3161	90.7397	4.40137
10.3224	99.246	4.46973
10.3284	114.051	4.53809
10.333	124.832	4.60645
10.3388	125.697	4.6748
10.3444	126.244	4.74316
10.3504	123.239	4.81152
10.3561	115.758	4.87988
10.3613	115.0089	4.94824
10.3678	117.75	5.0166
10.3738	122.691	5.08496
10.3788	129.191	5.15332
10.38352	144.333	5.22168
10.3897	156.621	5.29004
10.3961	160.458	5.3584
10.402	165.559	5.42676
10.4077	164.125	5.49512
10.4133	158.2991	5.56348
10.4189	156.747	5.63184
10.4243	156.108	5.7002
10.43	156.615	5.76855
10.4351	160.084	5.83691
10.4416	174.865	5.90527
10.4468	188.9438	5.97363
10.4534	193.905	6.04199
10.4581	200.557	6.11035
10.4643	202.79	6.17871
10.47078	200.627	6.24707
10.4757	195.269	6.31543
10.4817	195.398	6.38379
10.487	191.586	6.45215
10.4926	193.615	6.52051
10.4987	207.312	6.58887
10.5042	218.321	6.65723
10.51	226.389	6.72559
10.5156	236.153	6.79395
10.5221	241.817	6.8623
10.52626	240.2	6.93066
10.5326	237.582	6.99902
10.5386	234.351	7.06738
10.5444	230.0515	7.13574
10.5495	229.748	7.2041
10.557	237.982	7.27246
10.5611	247.453	7.34082
10.5671	257.829	7.40918
10.5726	268.877	7.47754
10.5785	274.767	7.5459
10.5841	279.341	7.61426
10.59	279.793	7.68262
10.5953	273.122	7.75098
10.60121	268.553	7.81934
10.607	267.115	7.8877
10.6133	271.301	7.95605
10.618	278.087	8.02441
10.6235	287.841	8.09277
10.6299	298.793	8.16113
10.6352	308.4418	8.22949
10.6409	315.195	8.29785
10.6476	316.449	8.36621
10.6521	314.231	8.43457
10.6575	307.717	8.50293
10.6635	306.79	8.57129
10.6702	308.487	8.63965
10.6755	309.771	8.70801
10.6809	318.828	8.77637
10.6867	327.813	8.84473
10.69243	337.163	8.91309
10.69802	346.051	8.98145
10.7039	352.172	9.0498
10.7093	350.829	9.11816
10.715	347.696	9.18652
10.7211	347.534	9.25488
10.7265	348.15	9.32324
10.7332	345.981	9.3916
10.7382	349.238	9.45996
10.7435	356.773	9.52832
10.74985	365.184	9.59668
10.7555	375.954	9.66504
10.7605	386.88	9.7334
10.7662	387.713	9.80176
10.7723	384.948	9.87012
10.7785	386.934	9.93848
10.7841	386.569	10.0068
10.7894	381.922	10.0752
10.7953	384.125	10.1436
10.801	388.6142	10.2119
10.8067	394.166	10.2803
10.8117	406.5965	10.3486
10.8177	417.013	10.417
10.8236	420.743	10.4854
10.8292	421.245	10.5537
10.8357	425.4035	10.62207
10.8409	425.0809	10.69043
10.84697	418.021	10.7588
10.8531	420.443	10.8271
10.8582	423.0246	10.8955
10.863	425.024	10.9639
10.8701	434.139	11.0322
10.8754	446.354	11.1006
10.8803	452.144	11.1689
10.886	454.08	11.2373
10.8932	461.854	11.3057
10.8975	462.377	11.374
10.9029	457.372	11.4424
10.9098	455.534	11.5107
10.9142	456.281	11.5791
10.9206	457.819	11.6475
10.9268	462.612	11.71582
10.9323	474.308	11.78418
10.9376	479.742	11.8525
10.9434	486.313	11.9209
10.949	495.447	11.9893
10.95445	497.754	12.0576
10.9597	495.677	12.126
10.9671	493.079	12.1943
10.9723	492.725	12.2627
10.9785	490.93	12.3311
10.9833	494.8082	12.3994
10.9893	501.997	12.4678
10.99441	507.675	12.5361
10.9999	515.0929	12.6045
11.0061	526.616	12.6729
11.0113	532.251	12.7412
11.0176	531.628	12.80957
11.0227	529.02	12.87793
11.03	526.544	12.9463
11.0329	525.4812	13.0146
11.0398	525.971	13.083
11.0454	530.666	13.1514
11.0526	536.839	13.2197
11.05712	542.486	13.2881
11.06273	555.051	13.3564
11.0689	563.137	13.4248
11.0744	565.275	13.4932
11.07948	563.75	13.5615
11.0867	563.296	13.6299
11.091	559.802	13.6982
11.0967	557.582	13.7666
11.1031	558.445	13.835
11.1084	561.307	13.90332
11.1127	571.023	13.97168
11.1202	582.743	14.04
11.1258	591.116	14.1084
11.1308	596.086	14.1768
11.1367	597.338	14.2451
11.142	594.365	14.3135
11.149	592.213	14.3818
11.15423	589.648	14.4502
11.1596	589.246	14.5186
11.1662	590.235	14.5869
11.17	597.161	14.6553
11.17657	610.995	14.7236
11.1822	617.5448	14.792
11.1885	625.499	14.8604
11.1939	630.453	14.9287
11.1996	626.8205	14.99707
11.2051	627.082	15.06543
11.2107	625.243	15.1338
11.2164	618.49	15.2021
11.2227	618.091	15.2705
11.2286	625.431	15.3389
11.2333	637.224	15.4072
11.24022	644.558	15.4756
11.245	654.129	15.5439
11.2512	661.126	15.6123
11.2573	660.109	15.6807
11.2624	660.802	15.749
11.2675	657.759	15.8174
11.2733	651.706	15.8857
11.2788	648.085	15.9541
11.28485	653.355	16.0225
11.2896	662.069	16.09082
11.2961	670.345	16.15918
11.3021	680.601	16.2275
11.3078	688.866	16.2959
11.3134	689.1	16.3643
11.3198	692.449	16.4326
11.3254	689.69	16.501
11.3307	682.059	16.5693
11.3363	677.277	16.6377
11.3413	681.222	16.7061
11.3469	689.011	16.7744
11.3533	693.573	16.8428
11.3586	705.549	16.9111
11.3641	715.398	16.9795
11.3703	718.678	17.0479
11.3758	721.762	17.1162
11.3819	722.0824	17.18457
11.3865	714.137	17.25293
11.3932	708.208	17.3213
11.399	711.453	17.3896
11.405	714.091	17.458
11.4103	717.835	17.5264
11.4154	729.71	17.5947
11.4215	739.183	17.6631
11.4277	746.213	17.7314
11.4337	749.269	17.7998
11.4386	752.512	17.8682
11.4432	743.998	17.9365
11.4499	738.055	18.0049
11.4559	739.722	18.0732
11.4619	739.867	18.1416
11.4673	742.234	18.21
11.473	750.779	18.27832
11.4789	761.92	18.34668
11.48385	770.535	18.415
11.4911	777.616	18.4834
11.4954	780.884	18.5518
11.50177	776.058	18.6201
11.5072	768.514	18.6885
11.5134	768.526	18.7568
11.5182	765.501	18.8252
11.5236	766.474	18.8936
11.53	773.425	18.9619
11.5356	783.631	19.0303
11.5418	794.728	19.0986
11.5463	801.448	19.167
11.5526	805.0639	19.2354
11.5576	802.8811	19.3037
11.5635	800.542	19.37207
11.57	797.669	19.44043
11.5748	792.971	19.5088
11.5805	791.077	19.5771
11.5866	795.88	19.6455
11.5925	803.718	19.7139
11.59885	814.534	19.7822
11.6045	822.169	19.8506
11.609	829.656	19.9189
11.6152	829.04	19.9873
[...]
16.7487	1015.27	81.6084
16.7509	999.091	81.6377
16.7545	1018.18	81.667
16.75687	1000.56	81.6963
16.7582	1016.06	81.7256
16.75992	999.654	81.7549
16.7628	1013.19	81.78418
16.7654	1000.66	81.8135
16.7678	1010.04	81.8428
16.7707	1004.35	81.87207
16.7747	1009.33	81.9014
16.776	1008.259	81.9307
16.7786	999.796	81.96
16.7812	1009.3	81.9893
16.7816	1001.21	82.0186
16.7856	1013.993	82.0479
16.7872	994.648	82.0771
16.7904	1013.91	82.1064
16.7923	996.1311	82.1357
16.7947	1012.63	82.165
16.7971	992.751	82.1943
16.7997	1014.28	82.2236
16.8027	997.06	82.25293
16.80423	1008.64	82.2822
16.8079	994.421	82.3115
16.8101	1006.11	82.34082
16.8111	1000.41	82.3701
16.8139	1001.09	82.3994
16.818	1002.05	82.4287
16.8196	1000.93	82.458
16.822	1006.03	82.4873
16.8245	991.782	82.5166
16.8275	1007.09	82.5459
16.8303	992.735	82.5752
16.8312	1007.5	82.6045
16.8337	989.442	82.6338
16.8375	1006.56	82.6631
16.83853	987.931	82.6924
16.8417	1005.4	82.72168
16.8442	992.049	82.751
16.8472	1003.42	82.7803
16.8497	990.4798	82.80957
16.8517	993.044	82.8389
16.8544	991.741	82.8682
16.8564	988.916	82.8975
16.8585	987.911	82.9268
16.867	-100.442	82.9561
16.8688	-31.9515	82.9854
16.8685	-45.4893	83.0146
16.8711	-33.2969	83.0439
16.8724	-49.6559	83.0732
16.8745	-29.3227	83.1025
16.8763	-49.1753	83.1318
16.8796	-35.1935	83.1611
16.8816	-46.5909	83.19043
16.884	-34.2462	83.2197
16.8861	-45.4128	83.249
16.8897	-41.1506	83.27832
16.8906	-38.9048	83.3076
16.8942	-41.3631	83.3369
16.8968	-38.8355	83.3662
16.8982	-48.3131	83.3955
16.901	-34.7824	83.4248
16.90332	-48.6976	83.4541
16.9055	-32.6308	83.4834
16.9076	-49.08569	83.5127
16.9099	-30.0658	83.542
16.9143	-50.5881	83.5713
16.9151	-33.1607	83.6006
16.9179	-48.1043	83.6299
16.91967	-33.0307	83.65918
16.9232	-44.4223	83.6885
16.9244	-37.96159	83.7178
16.92746	-42.58707	83.74707
16.9294	-41.79287	83.7764
16.933	-39.9339	83.8057
16.935	-42.8951	83.835
16.93751	-34.1724	83.8643
16.9398	-46.5114	83.8936
16.9415	-33.9594	83.9229
16.9454	-49.1421	83.9521
16.9474	-32.0136	83.9814
16.9492	-50.4564	84.0107
16.9516	-31.28694	84.04
16.954	-47.7752	84.0693
16.9563	-34.3553	84.0986
16.9595	-51.4585	84.12793
16.9618	-35.0273	84.1572
16.9645	-45.1594	84.1865
16.9663	-36.6069	84.21582
16.9685	-44.1555	84.2451
16.9718	-41.38076	84.2744
16.9742	-38.5147	84.3037
16.9757	-45.7345	84.333
16.97901	-38.7909	84.3623
16.9804	-45.3469	84.3916
16.984	-33.5536	84.4209
16.9854	-48.6833	84.4502
16.9886	-35.6413	84.4795
16.9904	-48.9325	84.5088
16.9926	-33.38343	84.5381
16.9959	-47.8903	84.5674
16.99828	-34.3844	84.59668
16.9994	-45.0036	84.626
17.003	-36.2293	84.6553
17.0056	-45.0364	84.68457
17.00799	-40.2309	84.7139
17.0102	-39.9962	84.7432
17.0121	-41.5596	84.7725
17.0158	-37.4988	84.8018
17.0181	-45.1758	84.8311
17.0195	-35.0815	84.8604
17.0222	-47.2522	84.8896
17.0244	-32.4529	84.9189
17.028	-45.9562	84.9482
17.0296	-33.8181	84.9775
17.0321	-49.8032	85.0068
17.0346	-33.3812	85.0361
17.0372	-45.0906	85.06543
17.0386	-36.2004	85.0947
17.0415	-42.0859	85.124
17.044	-37.4489	85.15332
17.0472	-41.49947	85.1826
17.0503	-43.6567	85.2119
17.0516	-37.0553	85.2412
17.0527	-43.557	85.2705
17.0561	-36.7166	85.2998
17.0584	-49.8788	85.3291
17.0613	-32.4577	85.3584
17.0645	-47.9362	85.3877
17.067	-34.5171	85.417
17.0688	-51.7935	85.4463
17.0722	-30.6172	85.4756
17.0737	-49.0854	85.5049
17.0756	-36.471	85.53418
17.0781	-49.3026	85.5635
17.0806	-35.2758	85.5928
17.084	-43.6802	85.62207
17.0862	-38.8297	85.6514
17.0876	-40.4771	85.6807
17.0908	-42.9685	85.71
17.0929	-38.6181	85.7393
17.09527	-47.58	85.7686
17.0977	-33.0001	85.7979
17.101	-48.1977	85.8271
17.103	-32.10144	85.8564
17.10557	-49.1272	85.8857
17.1086	-30.9592	85.915