Folder: Stress_Strain_Analysis_Tools/data/processed_data_files/tensile (part 43)

File: 0.254_solid_uprint_typei_090_r(2).dat
MTS793|BTW|ENU|1|2|.|/|:|1|0|0|A

Data Header:			0.254_solid_uprint_typei_090_r0			Time:	20.0227	s	4/15/2019 2:51:23 PM
Data Acquisition:	Timed
Station Name:	ft40.cfg
Test File Name:	monotonic_0.2540_typei_solid_090_uprint.tst
Displacement	Force	Running Time
mm	N	s
9.98231	-153.289	0.02734375
9.982832	-152.367	0.0957031
9.9906	-146.7001	0.1640625
9.99663	-141.396	0.232422
10.0027	-138.991	0.300781
10.007	-135.569	0.369141
10.0127	-127.55	0.4375
10.0187	-125.82	0.505859
10.0246	-123.848	0.574219
10.03047	-122.091	0.642578
10.03549	-122.0838	0.7109375
10.0416	-116.805	0.779297
10.0471	-111.076	0.847656
10.0531	-108.545	0.916016
10.0589	-105.017	0.984375
10.0651	-100.38	1.05273
10.0697	-91.8728	1.12109
10.0749	-89.2575	1.18945
10.0813	-86.9683	1.25781
10.0879	-82.6301	1.32617
10.0927	-80.9413	1.39453
10.0983	-79.937	1.46289
10.1038	-75.2164	1.53125
10.11044	-70.4911	1.59961
10.1159	-69.7006	1.66797
10.1217	-64.8652	1.73633
10.1268	-54.7071	1.80469
10.1331	-50.94886	1.87305
10.1386	-47.4976	1.94141
10.1438	-44.787	2.00977
10.1505	-42.2311	2.078125
10.1558	-40.5772	2.14648
10.1615	-36.84705	2.21484
10.1662	-32.2812	2.2832
10.1717	-31.9446	2.35156
10.1783	-28.1304	2.41992
10.1841	-18.3034	2.48828
10.1893	-13.8795	2.55664
10.195	-9.17038	2.625
10.2004	-5.897923	2.69336
10.207	-1.58092	2.76172
10.2119	-0.993915	2.83008
10.2197	3.43079	2.89844
10.2237	5.34158	2.9668
10.2289	6.635366	3.03516
10.2344	9.9693	3.10352
10.24053	20.3544	3.171875
10.2468	24.9969	3.24023
10.2531	27.9736	3.30859
10.2583	33.19997	3.37695
10.26482	37.9458	3.44531
10.2694	39.5757	3.51367
10.2755	42.70615	3.58203
10.2798	44.68848	3.65039
10.287	45.5183	3.71875
10.29149	48.9405	3.78711
10.2974	56.551	3.85547
10.3032	62.0835	3.92383
10.3095	65.9915	3.99219
10.3159	72.39299	4.06055
10.32006	78.1168	4.12891
10.3262	81.2514	4.19727
10.3318	85.699	4.265625
10.3373	86.2523	4.33398
10.3437	85.28	4.40234
10.34943	89.5416	4.4707
10.3546	96.9474	4.53906
10.36095	100.64	4.60742
10.3662	105.855	4.67578
10.3716	112.546	4.74414
10.37724	116.085	4.8125
10.384	123.166	4.88086
10.389	125.526	4.94922
10.3949	128.2032	5.01758
10.4006	125.987	5.08594
10.4063	129.4	5.1543
10.4125	136.504	5.22266
10.41675	138.802	5.29102
10.423	144	5.359375
10.4277	152.261	5.42773
10.4352	156.525	5.49609
10.44	161.439	5.56445
10.44762	165.16	5.63281
10.4515	169.029	5.70117
10.4576	167.5876	5.76953
10.4631	168.0556	5.83789
10.4688	175.691	5.90625
10.4744	179.353	5.97461
10.47969	180.57	6.04297
10.4863	188.093	6.11133
10.48921	194.135	6.17969
10.4959	199.733	6.24805
10.5031	205.004	6.31641
10.5085	208.493	6.38477
10.5138	207.477	6.453125
10.5204	209.489	6.52148
10.5257	215.6403	6.58984
10.5305	217.0639	6.6582
10.5363	219.302	6.72656
10.5427	225.579	6.79492
10.5496	234.26	6.86328
10.5529	239.557	6.93164
10.56	245.28	7
10.56584	249.288	7.06836
10.5718	247.4305	7.13672
10.5765	249.851	7.20508
10.5825	253.7475	7.27344
10.5883	257.653	7.3418
10.5945	259.032	7.41016
10.59949	264.02	7.47852
10.6057	270.966	7.546875
10.6104	277.926	7.61523
10.6167	283.356	7.68359
10.6222	288.371	7.75195
10.629	288.904	7.82031
10.634	290.879	7.88867
10.6396	295.191	7.95703
10.6458	296.1185	8.02539
10.6509	298.025	8.09375
10.65574	303.812	8.16211
10.6623	307.094	8.23047
10.66817	313.104	8.29883
10.6729	321.766	8.36719
10.6786	325.264	8.43555
10.6852	326.652	8.50391
10.6909	329.634	8.57227
10.696	334.761	8.640625
10.7017	335.678	8.70898
10.707	336.373	8.77734
10.7131	341.048	8.8457
10.7197	345.707	8.91406
10.7261	349.946	8.98242
10.7304	358.895	9.05078
10.7354	365.616	9.11914
10.7424	364.707	9.1875
10.7483	368.874	9.25586
10.7541	374.205	9.32422
10.7593	376.071	9.39258
10.7648	376.103	9.46094
10.771	380.134	9.5293
10.7762	383.285	9.59766
10.7825	386.9166	9.66602
10.7877	394.981	9.734375
10.7941	401.611	9.80273
10.7986	402.6217	9.87109
10.8048	406.5	9.93945
10.8107	413.779	10.0078
10.8171	415.629	10.0762
10.8213	412.902	10.1445
10.8286	418.5192	10.2129
10.8327	420.978	10.28125
10.839	423.888	10.3496
10.845	430.9501	10.418
10.8498	437.495	10.4863
10.8567	438.918	10.5547
10.8623	444.862	10.623
10.8682	449.7468	10.6914
10.8734	454.285	10.7598
10.8794	454.445	10.8281
10.8847	457.005	10.8965
10.8901	459.395	10.9648
10.8959	461.139	11.0332
10.9015	467.108	11.1016
10.9061	472.671	11.1699
10.9128	475.668	11.2383
10.918	480.378	11.3066
10.924	488.0285	11.375
10.9294	491.383	11.4434
10.9353	492.916	11.5117
10.9416	494.36	11.5801
10.94765	496.056	11.6484
10.9527	498.9873	11.7168
10.9597	503.94	11.7852
10.9636	506.821	11.8535
10.9693	512.097	11.9219
10.9755	514.1618	11.9902
10.9808	523.75	12.0586
10.9875	526.802	12.127
10.993	528.467	12.1953
10.999	533.331	12.2637
11.0046	535.26	12.332
11.0089	534.036	12.4004
11.0145	539.695	12.46875
11.0211	542.69	12.5371
11.0272	544.969	12.6055
11.033	548.908	12.6738
11.0388	558.5011	12.7422
11.0435	563.901	12.8105
11.0496	565.728	12.8789
11.0559	570.015	12.9473
11.0607	572.966	13.0156
11.0673	571.291	13.084
11.0722	575.156	13.1523
11.0783	580.445	13.2207
11.0838	580.83	13.2891
11.0886	582.795	13.3574
11.0949	592.346	13.4258
11.101	598.356	13.4941
11.1068	599.571	13.5625
11.112	603.591	13.6309
11.1179	608.248	13.6992
11.1243	609.311	13.7676
11.1296	609.758	13.8359
11.1353	613.223	13.9043
11.1405	614.799	13.9727
11.1474	615.257	14.041
11.1517	623.771	14.1094
11.1579	631.252	14.1777
11.1628	635.084	14.2461
11.1693	639.275	14.3145
11.1748	642.721	14.3828
11.1807	644.987	14.4512
11.186	647.122	14.5195
11.1926	650.112	14.5879
11.197	649.319	14.65625
11.20263	650.596	14.7246
11.2086	657.9	14.793
11.21571	663.568	14.8613
11.2205	665.6308	14.9297
11.2265	673.031	14.998
11.2322	676.711	15.0664
11.2377	678.69	15.1348
11.2449	683.012	15.2031
11.2496	683.9082	15.2715
11.2558	683.247	15.3398
11.2607	684.1153	15.4082
11.2654	689.426	15.4766
11.2716	694.2641	15.5449
11.2769	698.731	15.6133
11.2828	705.397	15.6816
11.2878	709.946	15.75
11.2942	711.1991	15.8184
11.30078	716.741	15.8867
11.306	718.872	15.9551
11.31193	717.154	16.0234
11.3175	716.737	16.0918
11.3226	723.648	16.1602
11.3288	727.456	16.2285
11.3345	730.903	16.2969
11.3402	735.75	16.3652
11.3461	743.39	16.4336
11.3517	744.167	16.502
11.35697	749.4267	16.5703
11.3636	752.279	16.6387
11.3687	749.884	16.707
11.37363	749.963	16.7754
11.3803	754.422	16.84375
11.3857	760.427	16.9121
11.391	759.044	16.9805
11.3978	766.044	17.0488
11.4033	773.398	17.1172
11.408	776.005	17.1855
11.4137	781.042	17.2539
11.421	785.109	17.3223
11.4257	785.464	17.3906
11.4315	782.714	17.459
11.4372	783.515	17.5273
11.443	788.956	17.5957
11.4487	791.637	17.6641
11.4539	793.724	17.7324
11.4612	802.755	17.8008
11.4664	806.232	17.8691
11.4716	809.708	17.9375
11.4761	813.301	18.0059
11.4819	814.085	18.0742
11.4884	813.84	18.1426
11.4946	813.894	18.2109
11.4996	818.667	18.2793
11.5048	819.955	18.3477
11.5119	823.802	18.416
11.5167	828.486	18.4844
11.5232	834.419	18.5527
11.5278	840.851	18.6211
11.5335	845.505	18.6895
11.5398	846.273	18.7578
11.5463	844.43	18.8262
11.5505	844.909	18.8945
11.5568	849.022	18.9629
11.56217	849.228	19.03125
11.5681	851.036	19.0996
11.5743	856.952	19.168
11.579	859.172	19.2363
11.58442	866.833	19.3047
11.5919	872.812	19.373
11.59665	874.798	19.4414
11.603	871.953	19.5098
11.6068	874.471	19.5781
11.6135	877.294	19.6465
11.61899	876.782	19.7148
11.62455	878.81	19.7832
11.6298	882.969	19.8516
11.6369	885.658	19.9199
11.6422	891.186	19.9883
[...]
12.3633	974.2417	28.6406
12.3685	968.843	28.709
12.37463	967.783	28.7773
12.3797	968.02	28.8457
12.3854	966.499	28.9141
12.3913	964.532	28.9824
12.3964	969.004	29.0508
12.4027	972.785	29.1191
12.409	970.464	29.1875
12.4134	970.412	29.2559
12.4199	970.419	29.3242
12.4261	967.352	29.3926
12.4313	966.976	29.4609
12.436	965.547	29.5293
12.44214	962.136	29.5977
12.4483	962.567	29.666
12.454	963.25	29.7344
12.4595	969.7547	29.8027
12.4663	969.173	29.8711
12.4709	968.74	29.9395
12.4771	969.71	30.0078
12.4818	968.288	30.0762
12.4883	964.699	30.1445
12.49447	963.585	30.2129
12.4997	961.825	30.28125
12.50565	959.055	30.3496
12.5119	959.821	30.418
12.516	963.088	30.4863
12.5224	963.653	30.5547
12.5282	965.484	30.623
12.5335	968.644	30.6914
12.5402	965.618	30.7598
12.5454	966	30.8281
12.5522	964.546	30.8965
12.5579	961.309	30.9648
12.562	957.537	31.0332
12.56806	958.12	31.1016
12.5735	962.346	31.1699
12.5794	960.435	31.2383
12.585	963.173	31.3066
12.59157	965.965	31.375
12.5971	962.877	31.4434
12.6031	963.506	31.5117
12.6078	963.593	31.5801
12.6129	958.075	31.6484
12.6195	954.06	31.7168
12.6251	954.688	31.7852
12.6314	959.718	31.8535
12.6367	957.676	31.9219
12.64226	959.76	31.9902
12.6476	964.462	32.0586
12.6535	964.473	32.127
12.6598	964.0083	32.1953
12.6656	963.434	32.2637
12.6699	961.351	32.332
12.677	954.565	32.4004
12.6824	951.476	32.46875
12.68803	958.284	32.5371
12.6934	956.509	32.6055
12.6992	956.627	32.6738
12.7053	960.237	32.7422
12.7107	962.556	32.8105
12.7166	962.476	32.8789
12.72207	960.766	32.9473
12.7288	960.202	33.0156
12.7333	955.17	33.084
12.739	951.628	33.1523
12.7444	954.858	33.2207
12.7507	954.035	33.2891
12.7565	954.038	33.3574
12.763	958.39	33.4258
12.7678	959.478	33.4941
12.7733	962.028	33.5625
12.7793	960.932	33.6309
12.7854	962.207	33.6992
12.78982	955.081	33.7676
12.79686	952.7251	33.8359
12.8011	954.341	33.9043
12.8076	952.272	33.9727
12.8139	952.7442	34.041
12.8186	955.4198	34.1094
12.8251	956.525	34.1777
12.8301	958.431	34.2461
12.8355	959.528	34.3145
12.8413	959.537	34.3828
12.8479	956.1153	34.4512
12.85264	952.884	34.5195
12.8587	953.709	34.5879
12.8642	948.882	34.65625
12.8702	948.676	34.7246
12.8763	951.272	34.793
12.8809	951.551	34.8613
12.8873	953.705	34.9297
12.8926	956.205	34.998
12.89737	957.881	35.0664
12.9047	954.679	35.1348
12.9098	951.905	35.2031
12.9153	951.625	35.2715
12.9219	950.116	35.3398
12.9271	947.145	35.4082
12.9327	949.089	35.4766
12.9388	949.912	35.5449
12.9441	949.6557	35.6133
12.9514	953.642	35.6816
12.9556	956.349	35.75
12.9595	953.039	35.8184
12.9676	948.301	35.8867
12.9726	951.205	35.9551
12.9793	945.776	36.0234
12.98877	-43.3841	36.0918
12.9902	-46.5651	36.1602
12.9971	-43.5059	36.2285
13.00094	-42.1109	36.2969
13.0074	-39.4223	36.3652
13.0134	-35.648	36.4336
13.0193	-35.3367	36.502
13.0246	-40.5608	36.5703
13.0312	-38.1342	36.6387
13.0359	-38.9243	36.707
13.04113	-43.8646	36.7754
13.047	-45.7589	36.84375
13.0522	-44.4271	36.9121
13.0579	-43.4622	36.9805
13.064	-40.23103	37.0488
13.0706	-37.0518	37.1172
13.0745	-37.8669	37.1855
13.0817	-38.18396	37.2539
13.087	-37.94265	37.3223
13.0925	-38.6489	37.3906
13.0984	-42.8731	37.459
13.1038	-44.1237	37.5273
13.10909	-46.1126	37.5957
13.1159	-45.0514	37.6641
13.1209	-40.76041	37.7324
13.1266	-39.9265	37.8008
13.1319	-39.1	37.8691
13.138	-39.0801	37.9375
13.1443	-37.5711	38.0059
13.14959	-36.5312	38.0742
13.1559	-41.5391	38.1426
13.1608	-42.7386	38.2109
13.1665	-43.8624	38.2793
13.1727	-46.0015	38.3477
13.17825	-42.7412	38.416
13.184	-39.9147	38.4844
13.1891	-38.6663	38.5527
13.19572	-41.2633	38.6211
13.2007	-36.9636	38.6895
13.2062	-34.8386	38.7578
13.2124	-40.3476	38.8262
13.2126	-42.4296	38.8359

File: 0.254_solid_uprint_typei_090_r(3).dat
MTS793|BTW|ENU|1|2|.|/|:|1|0|0|A

Data Header:			0.254_solid_uprint_typei_090_r0			Time:	20.0178	s	4/15/2019 2:53:37 PM
Data Acquisition:	Timed
Station Name:	ft40.cfg
Test File Name:	monotonic_0.2540_typei_solid_090_uprint.tst
Displacement	Force	Running Time
mm	N	s
9.98133	-163.64	0.0227051
9.98434	-158.74	0.0910645
9.99028	-159.7291	0.159424
9.99432	-155.189	0.2277832
10.0006	-145.21	0.296143
10.0075	-142.73	0.364502
10.0125	-134.086	0.432861
10.0187	-127.926	0.5012207
10.0241	-126.347	0.56958
10.0295	-128.658	0.637939
10.0354	-125.542	0.706299
10.0418	-122.1982	0.7746582
10.0466	-121.874	0.843018
10.0529	-119.474	0.911377
10.0578	-110.483	0.979736
10.0646	-106.108	1.0481
10.0705	-98.4231	1.11646
10.0749	-91.982	1.18481
10.0815	-88.6665	1.25317
10.0866	-86.7633	1.32153
10.0921	-83.8481	1.38989
10.0988	-81.5164	1.458252
10.104	-83.5294	1.52661
10.11	-79.959	1.59497
10.1151	-74.8923	1.66333
10.1209	-68.5064	1.73169
10.1268	-62.3317	1.80005
10.1328	-56.0555	1.86841
10.1389	-52.1432	1.93677
10.1445	-48.2239	2.005127
10.1505	-43.7803	2.07349
10.1548	-43.797	2.14185
10.1614	-42.79097	2.21021
10.1665	-39.84449	2.27856
10.1711	-37.5914	2.34692
10.1777	-32.3767	2.41528
10.1842	-24.0032	2.48364
10.1908	-18.3106	2.552002
10.1953	-15.2989	2.62036
10.2012	-10.6893	2.68872
10.2063	-4.464891	2.75708
10.2111	-2.88475	2.82544
10.21807	-3.116163	2.8938
10.2237	0.968154	2.96216
10.22894	2.43465	3.03052
10.2357	4.09788	3.098877
10.2414	11.1897	3.16724
10.2462	19.2133	3.2356
10.2525	20.5072	3.30396
10.2582	27.087	3.37231
10.2636	36.3817	3.44067
10.2695	37.9494	3.50903
10.27474	36.8811	3.57739
10.2804	41.0839	3.645752
10.2869	43.165	3.71411
10.2916	43.3709	3.78247
10.2977	48.4147	3.85083
10.3038	58.0583	3.91919
10.3087	61.1748	3.98755
10.3149	64.2049	4.05591
10.3206	73.71685	4.12427
10.3261	80.5161	4.192627
10.3319	78.5995	4.26099
10.3378	82.1554	4.32935
10.34294	83.7222	4.39771
10.3491	83.3067	4.46606
10.3548	87.42543	4.53442
10.3608	93.7793	4.60278
10.36553	97.8347	4.67114
10.3704	102.088	4.739502
10.3773	111.469	4.80786
10.3836	118.714	4.87622
10.389	119.959	4.94458
10.3938	122.569	5.01294
10.3992	123.869	5.0813
10.4063	124.072	5.14966
10.4117	127.288	5.21802
10.4165	132.055	5.286377
10.4232	133.977	5.35474
10.4288	140.095	5.4231
10.4348	147.4563	5.49146
10.4401	155.228	5.55981
10.4451	160.384	5.62817
10.451	161.532	5.69653
10.4584	164.5049	5.76489
10.4629	163.765	5.833252
10.4686	166.348	5.90161
10.4743	168.259	5.96997
10.4793	170.388	6.03833
10.4849	176.852	6.10669
10.4913	185.306	6.17505
10.4973	192.599	6.24341
10.502	197.321	6.31177
10.50927	203.044	6.380127
10.5143	204.532	6.44849
10.5199	206.361	6.51685
10.5255	206.746	6.58521
10.5302	208.365	6.65356
10.5372	208.335	6.72192
10.5429	213.151	6.79028
10.54792	222.612	6.85864
10.5543	229.86	6.927002
10.5601	232.157	6.99536
10.5661	241.595	7.06372
10.5711	244.663	7.13208
10.5769	245.538	7.20044
10.5826	246.973	7.2688
10.5881	248.016	7.33716
10.5941	246.6479	7.40552
10.599	248.876	7.473877
10.6045	258.3067	7.54224
10.6101	266.298	7.6106
10.6165	269.997	7.67896
10.6226	277.122	7.74731
10.6291	284.105	7.81567
10.6336	286.261	7.88403
10.63852	287.492	7.95239
10.6451	289.933	8.020752
10.6509	287.412	8.08911
10.6574	287.328	8.15747
10.6625	293.8765	8.22583
10.6678	302.007	8.29419
10.6737	305.051	8.36255
10.6794	314.565	8.43091
10.6842	322.073	8.49927
10.6909	323.098	8.567627
10.6966	326.628	8.63599
10.7016	329.338	8.70435
10.7083	325.634	8.77271
10.7136	325.386	8.84106
10.7194	330.937	8.90942
10.72545	336.882	8.97778
10.7301	341.4364	9.04614
10.7369	349.114	9.114502
10.74154	356.47	9.18286
10.7476	363.907	9.25122
10.752	366.789	9.31958
10.7593	367.159	9.38794
10.7647	366.075	9.4563
10.7706	365.095	9.52466
10.7749	368.435	9.59302
10.7816	373.317	9.661377
10.7872	377.919	9.72974
10.7925	384.7543	9.7981
10.7987	392.818	9.86646
10.8037	399.044	9.93481
10.8101	403.7363	10.0032
10.8159	407.478	10.0715
10.8208	404.5	10.1399
10.827	405.226	10.2083
10.8327	407.1015	10.2766
10.8394	408.138	10.345
10.8439	412.315	10.41333
10.8507	421.153	10.4817
10.8556	426.685	10.55
10.8617	433.716	10.6184
10.8663	441.501	10.6868
10.8733	444.519	10.7551
10.8784	443.582	10.8235
10.8842	443.2233	10.8918
10.8896	446.852	10.9602
10.8953	448.234	11.0286
10.9017	447.9119	11.0969
10.90602	454.349	11.1653
10.9118	459.926	11.2336
10.918	465.899	11.302
10.9239	475.422	11.3704
10.92985	482.0033	11.4387
10.9342	480.627	11.50708
10.9414	480.03	11.5754
10.9468	485.143	11.6438
10.9522	487.056	11.7122
10.9576	483.58	11.7805
10.9649	488.547	11.8489
10.9687	494.924	11.9172
10.9754	500.953	11.9856
10.9817	507.529	12.054
10.9868	516.851	12.1223
10.9925	518.096	12.1907
10.9973	519.612	12.259
11.0039	522.642	12.3274
11.0095	523.776	12.3958
11.0146	520.951	12.4641
11.0203	522.36	12.5325
11.0266	529.11	12.60083
11.0323	536.386	12.6692
11.0375	540.621	12.7375
11.0437	549.103	12.8059
11.0495	553.164	12.8743
11.0558	553.35	12.9426
11.06	559.23	13.011
11.0662	560.096	13.0793
11.0721	557.668	13.1477
11.0773	558.995	13.2161
11.0842	562.629	13.2844
11.0896	568.185	13.3528
11.0944	575.182	13.4211
11.0996	581.4884	13.4895
11.1066	585.908	13.5579
11.11173	590.965	13.6262
11.1176	595.453	13.69458
11.1238	597.834	13.7629
11.1291	595.724	13.8313
11.1355	597.509	13.8997
11.13954	598.1795	13.968
11.1458	601.023	14.0364
11.1521	607.58	14.1047
11.1568	613.506	14.1731
11.1631	617.363	14.2415
11.169	623.136	14.3098
11.175	631.118	14.3782
11.18	632.243	14.4465
11.1856	632.7276	14.5149
11.1921	632.874	14.5833
11.1977	632.086	14.6516
11.20326	634.026	14.72
11.2086	639.371	14.78833
11.21454	645.496	14.8567
11.2187	647.604	14.925
11.2251	654.63	14.9934
11.2314	664.039	15.0618
11.2364	666.647	15.1301
11.2421	668.3913	15.1985
11.248	668.763	15.2668
11.2536	668.445	15.3352
11.2599	667.218	15.4036
11.2656	670.473	15.4719
11.2707	676.95	15.5403
11.277	680.8067	15.6086
11.2832	684	15.677
11.288	694.953	15.7454
11.2949	701.033	15.8137
11.3005	700.078	15.88208
11.3056	702.919	15.9504
11.3104	704.8692	16.0188
11.317	702.955	16.0872
11.322	704.369	16.1555
11.3283	706.99	16.2239
11.3339	710.148	16.2922
11.3405	715.065	16.3606
11.3456	725.438	16.429
11.3521	731.087	16.4973
11.3564	733.804	16.5657
11.3617	735.72	16.634
11.3683	738.406	16.7024
11.3748	738.235	16.7708
11.3789	736.517	16.8391
11.3853	738.562	16.9075
11.3901	738.941	16.97583
11.3967	744.819	17.0442
11.4028	753.627	17.1125
11.4079	761.309	17.1809
11.4135	764.998	17.2493
11.4191	769.439	17.3176
11.4245	770.782	17.386
11.4317	770.901	17.4543
11.4361	771.029	17.5227
11.4423	770.4024	17.5911
11.4478	769.331	17.6594
11.4542	774.415	17.7278
11.4585	780.755	17.7961
11.4644	787.773	17.8645
11.4708	793.9	17.9329
11.476	799.9	18.0012
11.48176	802.689	18.06958
11.4879	801.623	18.1379
11.4939	803.8407	18.2063
11.4986	802.564	18.2747
11.5051	800.609	18.343
11.5104	802.324	18.4114
11.5163	809.203	18.4797
11.5222	814.18	18.5481
11.5277	820.897	18.6165
11.5337	828.589	18.6848
11.538	831.6059	18.7532
11.5453	830.904	18.8215
11.5503	833.5813	18.8899
11.5557	833.24	18.9583
11.5638	827.875	19.0266
11.5679	828.441	19.095
11.57255	836.033	19.16333
11.57875	840.026	19.2317
11.5843	845.36	19.3
11.5899	854.263	19.3684
11.5959	859.484	19.4368
11.6015	859.911	19.5051
11.6073	862.865	19.5735
11.613	863.048	19.6418
11.6192	856.67	19.7102
11.6241	856.247	19.7786
11.6306	862.711	19.8469
11.63584	865.6333	19.9153
[...]
11.9713	970.752	23.929
11.9739	966.573	23.968
11.97717	978.86	24.00708
11.9796	967.832	24.0461
11.9841	970.976	24.0852
11.9868	980.315	24.1243
11.99	964.438	24.16333
11.9945	975.724	24.2024
11.997	976.9884	24.2415
12.00018	967.091	24.2805
12.00287	980.732	24.31958
12.0057	974.274	24.3586
12.0089	971.918	24.3977
12.0131	981.631	24.4368
12.0154	972.367	24.47583
12.0192	976.246	24.5149
12.0234	978.219	24.554
12.0265	971.3371	24.593
12.02884	981.437	24.63208
12.03242	974.492	24.6711
12.0365	972.88	24.7102
12.0382	983.357	24.7493
12.04203	968.479	24.78833
12.0446	978.655	24.8274
12.0488	977.998	24.8665
12.05196	971.254	24.9055
12.0546	978.792	24.94458
12.0586	973.515	24.9836
12.0612	972.285	25.0227
12.0647	978.385	25.0618
12.0675	969.753	25.10083
12.0722	975.464	25.1399
12.0729	977.135	25.179
12.0773	969.1709	25.218
12.0818	979.359	25.25708
12.0842	968.446	25.2961
12.08766	970.624	25.3352
12.0901	978.6203	25.3743
12.0937	964.97	25.41333
12.097	974.951	25.4524
12.1007	975.134	25.4915
12.1028	965.47	25.5305
12.107	978.322	25.56958
12.1097	973.376	25.6086
12.1139	968.204	25.6477
12.1172	978.651	25.6868
12.1185	968.059	25.72583
12.12332	973.573	25.7649
12.1259	974.838	25.804
12.1302	966.245	25.843
12.1339	978.3999	25.88208
12.1356	968.445	25.9211
12.1395	970.9917	25.9602
12.1425	976.625	25.9993
12.14518	965.117	26.03833
12.1493	971.949	26.0774
12.1529	973.429	26.1165
12.1552	963.178	26.1555
12.15984	974.631	26.19458
12.1626	968.021	26.2336
12.16535	964.371	26.2727
12.168	971.919	26.3118
12.17144	961.1637	26.35083
12.1746	969.433	26.3899
12.1789	966.679	26.429
12.1822	961.061	26.468
12.1851	972.459	26.50708
12.1891	960.206	26.5461
12.1917	962.7677	26.5852
12.19496	970.505	26.6243
12.1974	956.605	26.66333
12.2011	964.953	26.7024
12.2044	967.543	26.7415
12.2081	954.814	26.7805
12.2115	969.129	26.81958
12.2149	961.5517	26.8586
12.2172	957.144	26.8977
12.2205	967.448	26.9368
12.2242	956.545	26.97583
12.2271	963.244	27.0149
12.2292	963.267	27.054
12.2345	958.662	27.093
12.2371	965.607	27.13208
12.2411	959.222	27.1711
12.2431	960.112	27.2102
12.2462	966.171	27.2493
12.2503	954.518	27.28833
12.2542	960.989	27.3274
12.2562	960.553	27.3665
12.259	951.858	27.4055
12.26353	961.7876	27.44458
12.2673	953.068	27.4836
12.2698	952.595	27.5227
12.2733	958.11	27.5618
12.2772	948.112	27.60083
12.2788	954.61	27.6399
12.2828	952.5011	27.679
12.2857	945.535	27.718
12.289	955.005	27.75708
12.2921	944.108	27.7961
12.29508	945.528	27.8352
12.299	954.871	27.8743
12.3031	938.522	27.91333
12.3057	948.415	27.9524
12.3088	948.034	27.9915
12.3128	932.472	28.0305
12.3218	-18.8862	28.06958
12.321	-38.9604	28.1086
12.3238	-44.3575	28.1477
12.32656	-36.7294	28.1868
12.3293	-45.2845	28.22583
12.3327	-41.8439	28.2649
12.3364	-39.2813	28.304
12.3387	-44.9411	28.343
12.342	-35.8086	28.38208
12.3451	-42.6591	28.4211
12.34909	-42.7253	28.4602
12.3519	-33.6215	28.4993
12.3569	-46.4569	28.53833
12.3574	-37.0414	28.5774
12.3614	-37.7492	28.6165
12.36478	-45.2464	28.6555
12.3684	-34.1603	28.69458
12.3718	-41.795	28.7336
12.3742	-41.9124	28.7727
12.3776	-35.1288	28.8118
12.3814	-44.1148	28.85083
12.38444	-41.2323	28.8899
12.38762	-37.4019	28.929
12.3909	-47.3504	28.968
12.3938	-34.5431	29.00708
12.3964	-45.321	29.0461
12.4	-40.869	29.0852
12.4038	-35.2628	29.1243
12.4069	-49.07476	29.16333
12.4107	-38.9402	29.2024
12.4133	-39.0541	29.2415
12.41685	-47.0653	29.2805
12.419	-37.7018	29.31958
12.4232	-42.2235	29.3586
12.4258	-45.9235	29.3977
12.429	-35.9054	29.4368
12.4333	-43.846	29.47583
12.43695	-42.11	29.5149
12.4391	-38.8553	29.554
12.4425	-44.551	29.593
12.4457	-35.7793	29.63208
12.4489	-43.1396	29.6711
12.45309	-39.9029	29.7102
12.4546	-46.33	29.7297