Folder: Stress_Strain_Analysis_Tools/data/processed_data_files/tensile (part 2)

File: 0.254_hd_dimension_typei_090_r(3).dat
MTS793|BTW|ENU|1|2|.|/|:|1|0|0|A

Data Header:			0.254_hd_dimension_typei_090_r0			Time:	20.01709	s	4/15/2019 3:36:12 PM
Data Acquisition:	Timed
Station Name:	ft40.cfg
Test File Name:	monotonic_0.2540_typei_hd_090_dimension.tst
Displacement	Force	Running Time
mm	N	s
9.98067	-227.72	0.0217285
9.98271	-227.708	0.0900879
9.98786	-226.38	0.158447
9.99283	-225.336	0.226807
9.99929	-225.3011	0.295166
10.0052	-219.469	0.363525
10.0106	-213.671	0.431885
10.0155	-211.546	0.500244
10.0217	-211.1416	0.568604
10.0277	-209.516	0.636963
10.0336	-210.063	0.705322
10.0379	-211.02	0.773682
10.0442	-211.364	0.842041
10.04967	-209.935	0.9104
10.0558	-208.811	0.97876
10.0621	-202.091	1.04712
10.0669	-197.481	1.11548
10.0736	-193.998	1.18384
10.0791	-190.6897	1.2522
10.0848	-188.345	1.32056
10.0899	-188.212	1.388916
10.0957	-187.79	1.45728
10.1012	-188.374	1.52563
10.1066	-192.271	1.59399
10.1122	-189.135	1.66235
10.1196	-180.7905	1.73071
10.1239	-177.903	1.79907
10.1299	-174.44	1.86743
10.1367	-167.592	1.935791
10.1411	-166.908	2.00415
10.1468	-162.954	2.07251
10.1535	-161.355	2.14087
10.1582	-164.126	2.20923
10.1643	-166.035	2.27759
10.16926	-161.408	2.34595
10.1759	-156.905	2.41431
10.1812	-153.638	2.482666
10.1866	-147.935	2.55103
10.193	-140.35	2.61938
10.1986	-139.382	2.68774
10.2043	-134.71	2.7561
10.2101	-129.542	2.82446
10.2156	-134.146	2.89282
10.2217	-136.02	2.96118
10.2275	-131.546	3.029541
10.23198	-129.311	3.0979
10.2386	-124.643	3.16626
10.2441	-118.575	3.23462
10.2497	-112.896	3.30298
10.2538	-110.768	3.37134
10.2604	-103.693	3.4397
10.2668	-99.3754	3.50806
10.2714	-102.409	3.576416
10.2786	-105.74	3.64478
10.284	-99.1858	3.71313
10.2893	-96.7591	3.78149
10.2955	-96.6011	3.84985
10.3016	-90.6668	3.91821
10.3059	-83.8823	3.98657
10.3118	-79.5462	4.05493
10.3183	-73.8753	4.123291
10.3236	-67.863	4.19165
10.329	-68.9669	4.26001
10.33534	-71.3282	4.32837
10.3408	-65.2132	4.39673
10.3464	-64.7604	4.46509
10.3525	-63.4397	4.53345
10.3576	-58.6442	4.60181
10.3643	-54.4611	4.670166
10.3697	-47.7656	4.73853
10.3749	-41.393	4.80688
10.3811	-35.0869	4.87524
10.387	-36.63047	4.9436
10.3923	-34.7976	5.01196
10.3973	-28.8087	5.08032
10.4033	-30.1931	5.14868
10.4091	-29.5609	5.217041
10.4153	-25.7314	5.2854
10.4212	-22.0423	5.35376
10.4253	-15.6342	5.42212
10.4324	-10.9866	5.49048
10.4372	-4.208735	5.55884
10.4443	-1.81862	5.6272
10.4493	0.185344	5.69556
10.4553	5.94723	5.763916
10.4596	5.76175	5.83228
10.4665	5.66408	5.90063
10.4716	7.08034	5.96899
10.4774	10.563	6.03735
10.4834	16.3745	6.10571
10.4875	22.5768	6.17407
10.4953	28.2503	6.24243
10.5004	31.9214	6.310791
10.5055	38.587	6.37915
10.5122	40.88747	6.44751
10.518	43.3314	6.51587
10.5222	43.8568	6.58423
10.5298	44.0644	6.65259
10.5354	44.4303	6.72095
10.5408	50.7673	6.78931
10.5464	55.4511	6.857666
10.5516	58.264	6.92603
10.5571	65.9374	6.99438
10.5637	73.8515	7.06274
10.5682	75.3963	7.1311
10.5743	78.3031	7.19946
10.5785	79.736	7.26782
10.5852	79.2491	7.33618
10.592	82.0842	7.404541
10.5962	85.0341	7.4729
10.603	89.76062	7.54126
10.6084	90.6229	7.60962
10.6139	97.5702	7.67798
10.6209	107.956	7.74634
10.6256	109.898	7.8147
10.6319	113.743	7.88306
10.6375	117.845	7.951416
10.6434	114.718	8.01978
10.64784	116.548	8.08813
10.654	118.657	8.15649
10.6591	123.209	8.22485
10.6653	125.185	8.29321
10.6705	130.375	8.36157
10.6768	141.787	8.42993
10.6824	143.9528	8.498291
10.6881	148.361	8.56665
10.6945	152.626	8.63501
10.6994	151.941	8.70337
10.7055	151.359	8.77173
10.7108	153.873	8.84009
10.7167	157.237	8.90845
10.7228	154.884	8.97681
10.7283	164.631	9.045166
10.734	173.116	9.11353
10.7394	177.67	9.18188
10.7452	182.532	9.25024
10.7515	187.081	9.3186
10.756	188.013	9.38696
10.7623	189.402	9.45532
10.7685	192.242	9.52368
10.7747	192.906	9.592041
10.7798	191.4622	9.6604
10.7853	195.512	9.72876
10.7908	206.561	9.79712
10.7968	210.061	9.86548
10.8029	215.684	9.93384
10.8072	221.366	10.0022
10.8123	222.649	10.0706
10.8195	226.92	10.1389
10.8261	226.209	10.2073
10.83074	225.187	10.2756
10.8363	225.4527	10.344
10.84323	231.925	10.4124
10.84788	238.926	10.4807
10.85345	242.176	10.5491
10.8592	250.449	10.6174
10.8648	255.2287	10.6858
10.8709	258.3739	10.75415
10.8762	263.979	10.82251
10.8822	262.676	10.8909
10.8875	259.93	10.9592
10.89217	260.95	11.0276
10.8987	266.3298	11.0959
10.9054	270.777	11.1643
10.9094	274.803	11.2327
10.91573	282.422	11.301
10.9221	286.867	11.3694
10.9276	293.169	11.4377
10.9322	297.981	11.5061
10.9391	298.786	11.5745
10.9435	296.919	11.6428
10.9512	297.696	11.7112
10.9561	302.194	11.7795
10.9617	302.9393	11.8479
10.9672	308.472	11.91626
10.9723	315.689	11.9846
10.9779	319.109	12.053
10.9851	326.843	12.1213
10.9897	333.108	12.1897
10.9957	334.668	12.2581
11.0022	332.344	12.3264
11.0073	333.932	12.3948
11.01322	337.739	12.4631
11.0189	334.533	12.5315
11.0251	337.2851	12.5999
11.0298	346.536	12.6682
11.0356	351.573	12.7366
11.042	358.324	12.8049
11.0479	366.719	12.8733
11.0528	368.35	12.94165
11.0591	366.616	13.01001
11.0641	368.303	13.0784
11.0707	371.191	13.1467
11.0756	370.216	13.2151
11.081	371.505	13.2834
11.0884	378.927	13.3518
11.0926	382.879	13.4202
11.0978	388.649	13.4885
11.1042	396.633	13.5569
11.1099	400.992	13.6252
11.1162	399.818	13.6936
11.1214	402.914	13.762
11.1277	406.99	13.8303
11.1325	405.34	13.8987
11.1383	405.407	13.967
11.1441	409.992	14.0354
11.1497	415.046	14.10376
11.1556	418.533	14.1721
11.1607	425.656	14.2405
11.1656	432.294	14.3088
11.1728	433.035	14.3772
11.1778	434.9166	14.4456
11.1833	442.85	14.5139
11.18944	438.7883	14.5823
11.1954	439.258	14.6506
11.20093	441.497	14.719
11.2061	442.706	14.7874
11.2117	447.945	14.8557
11.218	457.383	14.9241
11.224	460.6835	14.9924
11.2292	465.48	15.0608
11.2346	472.811	15.12915
11.23981	475.385	15.19751
11.24577	475.971	15.2659
11.2521	475.258	15.3342
11.2578	473.972	15.4026
11.2638	477.509	15.4709
11.2692	482.497	15.5393
11.275	486.4259	15.6077
11.2804	490.298	15.676
11.2869	497.246	15.7444
11.2918	505.142	15.8127
11.2973	506.4718	15.8811
11.3029	507.837	15.9495
11.3078	509.034	16.0178
11.3142	507.92	16.0862
11.3202	508.571	16.1545
11.32629	513.184	16.2229
11.3316	517.056	16.29126
11.337	517.795	16.3596
11.3424	525.752	16.428
11.3487	534.4494	16.4963
11.3534	537.695	16.5647
11.3601	539.053	16.6331
11.3665	542.704	16.7014
11.3719	540.1	16.7698
11.3769	541.3103	16.8381
11.3834	543.462	16.9065
11.3885	546.21	16.9749
11.3937	546.17	17.0432
11.4001	554.463	17.1116
11.4057	565.283	17.1799
11.4115	567.469	17.2483
11.4173	569.295	17.31665
11.4236	575.848	17.38501
11.4285	572.244	17.4534
11.4358	573.07	17.5217
11.4396	574.443	17.5901
11.4454	574.924	17.6584
11.4526	575.552	17.7268
11.4574	580.572	17.7952
11.4631	592.35	17.8635
11.4677	594.954	17.9319
11.474	600.942	18.0002
11.4801	604.6413	18.0686
11.4852	604.339	18.137
11.4913	605.101	18.2053
11.4974	605.555	18.2737
11.5021	603.404	18.342
11.5088	603.729	18.4104
11.5144	609.254	18.47876
11.5192	619.149	18.5471
11.5259	623.372	18.6155
11.5311	627.499	18.6838
11.5362	632.8717	18.7522
11.54301	636.0625	18.8206
11.5473	638.314	18.8889
11.5539	636.441	18.9573
11.5591	634.875	19.0256
11.5659	632.991	19.094
11.5714	638.168	19.1624
11.57635	644.677	19.2307
11.5826	649.225	19.2991
11.5873	655.233	19.3674
11.5939	660.48	19.4358
11.59917	664.068	19.50415
11.6058	666.9	19.57251
11.6102	665.518	19.6409
11.616	663.71	19.7092
11.6226	663.365	19.7776
[...]
13.8218	815.466	46.1741
13.8272	815.749	46.2327
13.8313	812.073	46.29126
13.8369	809.789	46.3499
13.8416	810.028	46.4084
13.8464	813.684	46.467
13.8515	811.778	46.5256
13.8551	816.999	46.5842
13.8603	815.133	46.6428
13.8649	819.214	46.7014
13.8715	818.463	46.76001
13.876	824.179	46.8186
13.8806	820.363	46.8772
13.8852	820.432	46.9358
13.8897	820.235	46.9944
13.8944	819.267	47.053
13.8999	816.086	47.1116
13.904	815.239	47.1702
13.9095	814.193	47.22876
13.915	810.662	47.2874
13.9188	812.378	47.3459
13.9241	812.102	47.4045
13.9285	813.489	47.4631
13.9339	816.314	47.5217
13.9393	817.271	47.5803
13.9437	819.884	47.6389
13.9472	820.878	47.69751
13.95343	823.59	47.7561
13.9584	821.044	47.8147
13.9634	825.121	47.8733
13.9674	819.774	47.9319
13.9735	818.513	47.9905
13.97796	815.459	48.0491
13.9838	812.719	48.1077
13.988	811.999	48.16626
13.9929	809.645	48.2249
13.9979	811.125	48.2834
14.0029	807.658	48.342
14.00683	813.537	48.4006
14.0125	813.259	48.4592
14.0173	818.653	48.5178
14.0212	817.359	48.5764
14.0264	821.807	48.63501
14.0315	819.303	48.6936
14.0363	820.852	48.7522
14.0413	821.472	48.8108
14.04617	818.4364	48.8694
14.051	819.236	48.928
14.057	816.449	48.9866
14.0607	813.571	49.0452
14.0658	813.603	49.10376
14.071	813.453	49.1624
14.0768	809.141	49.2209
14.0801	811.487	49.2795
14.0845	813.4541	49.3381
14.0908	815.164	49.3967
14.0946	816.971	49.4553
14.1005	818.416	49.5139
14.1055	822.113	49.57251
14.11	818.992	49.6311
14.1151	824.814	49.6897
14.11936	821.174	49.7483
14.1246	821.207	49.8069
14.1294	815.904	49.8655
14.1339	814.3064	49.9241
14.13812	809.953	49.9827
14.144	810.032	50.04126
14.1489	807.796	50.0999
14.1532	806.807	50.1584
14.1587	810.97	50.217
14.1637	807.1908	50.2756
14.1682	813.922	50.3342
14.1729	812.615	50.3928
14.178	817.942	50.4514
14.1834	816.116	50.51001
14.1879	819.891	50.5686
14.1924	819.242	50.6272
14.1978	817.265	50.6858
14.202	817.934	50.7444
14.2081	815.414	50.803
14.213	815.549	50.8616
14.2166	812.099	50.9202
14.2214	811.378	50.97876
14.2265	809.482	51.0374
14.2324	809.2337	51.0959
14.2362	809.552	51.1545
14.2424	810.274	51.2131
14.2468	811.054	51.2717
14.251	815.366	51.3303
14.2564	817.423	51.3889
14.2603	816.4176	51.44751
14.26593	820.033	51.5061
14.27129	815.391	51.5647
14.2761	816.201	51.6233
14.281	811.42	51.6819
14.28859	-32.45261	51.7405
14.2917	-47.3624	51.7991
14.2963	-47.87101	51.8577
14.3003	-51.122	51.91626
14.3063	-54.1798	51.9749
14.311	-49.4667	52.0334
14.3151	-53.2249	52.092
14.3203	-49.8889	52.1506
14.3257	-48.8878	52.2092
14.32936	-43.8803	52.2678
14.3349	-46.4921	52.3264
14.33874	-38.3048	52.38501
14.3449	-41.2363	52.4436
14.3492	-39.5431	52.5022
14.3548	-40.5945	52.5608
14.35888	-42.4125	52.6194
14.3639	-43.6941	52.678
14.3681	-46.9829	52.7366
14.373	-45.3013	52.7952
14.3793	-48.7772	52.85376
14.3837	-48.5446	52.9124
14.38851	-49.1588	52.9709
14.3927	-49.0517	53.0295
14.3985	-48.3277	53.0881
14.4027	-45.6476	53.1467
14.4083	-42.7714	53.2053
14.413	-44.2753	53.2639
14.4184	-38.6684	53.32251
14.4218	-41.3706	53.3811
14.4275	-38.5357	53.4397
14.4321	-41.2475	53.4983
14.4372	-41.1042	53.5569
14.442	-46.1744	53.6155
14.44751	-44.0585	53.6741
14.453	-48.9322	53.7327
14.4567	-52.8277	53.79126
14.4618	-50.3192	53.8499
14.4669	-53.0074	53.9084
14.4709	-50.9276	53.967
14.47566	-52.8291	54.0256
14.4808	-48.0831	54.0842
14.4859	-47.5883	54.1428
14.4914	-41.4342	54.2014
14.4953	-44.44809	54.26001
14.5004	-40.4362	54.3186
14.5063	-41.5607	54.3772
14.5104	-40.9218	54.4358
14.515	-43.6688	54.4944
14.52	-44.7326	54.553
14.525	-45.1315	54.6116
14.5295	-48.3413	54.6702
14.5355	-50.0046	54.72876
14.539	-52.0801	54.7874
14.5451	-51.3702	54.8459
14.5461	-43.6763	54.8655

File: 0.254_hd_dimension_typei_090_r(4).dat
MTS793|BTW|ENU|1|2|.|/|:|1|0|0|A

Data Header:			0.254_hd_dimension_typei_090_r0			Time:	20.0176	s	4/15/2019 3:38:35 PM
Data Acquisition:	Timed
Station Name:	ft40.cfg
Test File Name:	monotonic_0.2540_typei_hd_090_dimension.tst
Displacement	Force	Running Time
mm	N	s
9.98066	-160.679	0.0224609
9.98212	-159.179	0.0908203
9.98869	-152.448	0.15918
9.99313	-146.489	0.227539
9.99984	-142.812	0.295898
10.0052	-139.506	0.364258
10.0108	-141.728	0.432617
10.017	-139.938	0.500977
10.022	-138.133	0.569336
10.0276	-138.284	0.637695
10.0328	-136.838	0.706055
10.0388	-131.1	0.774414
10.0445	-125.96	0.842773
10.0503	-119.306	0.911133
10.0559	-111.863	0.979492
10.0628	-108.003	1.04785
10.0678	-108.719	1.11621
10.0727	-109.902	1.18457
10.079	-103.742	1.25293
10.0847	-105.804	1.32129
10.0901	-104.397	1.38965
10.0959	-100.658	1.45801
10.1024	-96.0552	1.52637
10.1075	-86.8992	1.59473
10.11275	-81.5972	1.66309
10.1195	-78.5085	1.73145
10.1242	-75.6391	1.7998
10.13	-72.367	1.86816
10.1364	-70.3187	1.93652
10.142	-72.8742	2.00488
10.1475	-70.7644	2.07324
10.1529	-68.6381	2.1416
10.1585	-66.0586	2.20996
10.1642	-56.9673	2.27832
10.1701	-50.6655	2.34668
10.1755	-47.2312	2.41504
10.182	-42.8545	2.4834
10.1875	-38.1756	2.55176
10.19284	-37.3732	2.62012
10.1979	-38.5803	2.68848
10.20412	-36.0319	2.75684
10.2102	-33.0911	2.8252
10.2153	-32.6507	2.89355
10.22027	-25.2884	2.96191
10.2269	-18.6619	3.03027
10.233	-15.0435	3.09863
10.2388	-11.2748	3.16699
10.2443	-2.38074	3.23535
10.2495	0.246956	3.30371
10.2559	-2.73058	3.37207
10.2614	-0.821868	3.44043
10.2666	-0.265624	3.50879
10.2728	0.252704	3.57715
10.2789	7.98795	3.64551
10.2841	14.5602	3.71387
10.2889	16.4532	3.78223
10.2948	23.00465	3.85059
10.3015	30.7045	3.91895
10.30658	36.1309	3.9873
10.3118	32.6793	4.05566
10.3176	36.3796	4.12402
10.32456	37.4314	4.19238
10.3292	37.3564	4.26074
10.3362	40.1986	4.3291
10.3416	46.5363	4.39746
10.3457	49.9528	4.46582
10.353	54.75914	4.53418
10.359	64.4291	4.60254
10.3626	68.7696	4.6709
10.3693	69.1735	4.73926
10.3752	71.6261	4.80762
10.381	72.3915	4.87598
10.3853	74.4463	4.94434
10.3925	75.365	5.0127
10.3975	79.0458	5.08105
10.4039	84.8444	5.14941
10.4082	88.8809	5.21777
10.4152	97.6217	5.28613
10.4211	103.675	5.35449
10.4264	106.375	5.42285
10.4312	110.352	5.49121
10.4387	108.087	5.55957
10.4433	113.0629	5.62793
10.4491	112.737	5.69629
10.454	112.869	5.76465
10.4611	115.748	5.83301
10.4669	121.151	5.90137
10.4718	129.54	5.96973
10.478	134.1077	6.03809
10.4835	139.575	6.10645
10.48904	143.881	6.1748
10.4941	146.368	6.24316
10.4995	149.104	6.31152
10.5068	149.312	6.37988
10.51192	149.818	6.44824
10.518	148.328	6.5166
10.5225	155.954	6.58496
10.52828	162.845	6.65332
10.5352	166.958	6.72168
10.54	172.719	6.79004
10.5464	180.972	6.8584
10.55243	181.658	6.92676
10.5573	182.681	6.99512
10.5635	188.022	7.06348
10.5684	186.106	7.13184
10.5746	183.283	7.2002
10.5811	187.631	7.26855
10.5856	197.8443	7.33691
10.5912	199.725	7.40527
10.59681	205.653	7.47363
10.6029	214.16	7.54199
10.6092	213.523	7.61035
10.6143	219.041	7.67871
10.6197	223.506	7.74707
10.6255	222.262	7.81543
10.6315	218.826	7.88379
10.6379	223.372	7.95215
10.643	228.5827	8.02051
10.6481	233.3	8.08887
10.6543	235.4	8.15723
10.66059	247.628	8.22559
10.6653	250.318	8.29395
10.67168	254.7496	8.3623
10.6767	258.17	8.43066
10.6829	257.224	8.49902
10.6881	254.969	8.56738
10.6938	256.252	8.63574
10.6996	261.348	8.7041
10.7051	263.913	8.77246
10.711	269.997	8.84082
10.717	277.106	8.90918
10.72234	282.226	8.97754
10.7279	288.6662	9.0459
10.7336	291.8493	9.11426
10.7391	293.244	9.18262
10.7453	293.166	9.25098
10.7508	294.609	9.31934
10.7563	296.995	9.3877
10.7622	296.98	9.45605
10.7679	304.35	9.52441
10.7729	309.683	9.59277
10.7781	316.71	9.66113
10.785	323.517	9.72949
10.7911	326.8027	9.79785
10.796	326.73	9.86621
10.8022	327.21	9.93457
10.808	330.872	10.00293
10.8137	330.012	10.0713
10.8193	331.033	10.1396
10.82515	335.745	10.208
10.8316	341.606	10.2764
10.8356	346.198	10.3447
10.8419	355.945	10.4131
10.84761	361.753	10.4814
10.8541	362.635	10.5498
10.85943	363.572	10.6182
10.8651	368.381	10.6865
10.8707	366.456	10.7549
10.8764	365.5567	10.8232
10.8824	368.856	10.8916
10.8868	373.513	10.96
10.8925	378.501	11.02832
10.8991	387.611	11.09668
10.9044	395.214	11.165
10.9103	395.049	11.2334
10.9155	398.199	11.3018
10.9216	401.099	11.3701
10.9272	402.773	11.4385
10.93198	399.1749	11.5068
10.9385	402.628	11.5752
10.9455	405.011	11.6436
10.9499	409.491	11.7119
10.9552	417.081	11.7803
10.9616	423.866	11.8486
10.9683	429.891	11.917
10.9738	431.663	11.9854
10.9787	438.934	12.0537
10.9837	437.876	12.12207
10.9902	434.147	12.19043
10.99582	436.021	12.2588
11.001	436.988	12.3271
11.0065	440.727	12.3955
11.0127	448.073	12.4639
11.0184	454.68	12.5322
11.0236	457.944	12.6006
11.0297	462.748	12.6689
11.0351	470.293	12.7373
11.0413	470.133	12.8057
11.0469	469.641	12.874
11.05171	469.293	12.9424
11.0598	469.354	13.0107
11.0642	472.219	13.0791
11.0691	478.2934	13.1475
11.0761	484.386	13.21582
11.0813	486.459	13.28418
11.08745	492.902	13.3525
11.0922	501.123	13.4209
11.099	503.0979	13.4893
11.1046	505.09	13.5576
11.1088	502.758	13.626
11.11603	502.264	13.6943
11.12075	503.9462	13.7627
11.126	508.892	13.8311
11.1328	513.485	13.8994
11.1387	518.606	13.9678
11.143	525.222	14.0361
11.1497	532.299	14.1045
11.1555	533.048	14.1729
11.1612	537.89	14.2412
11.167	539.222	14.30957
11.1734	535.065	14.37793
11.1776	538.553	14.4463
11.1834	541.859	14.5146
11.18908	543.5105	14.583
11.1956	544.9743	14.6514
11.20144	553.521	14.7197
11.2067	562.331	14.7881
11.2121	563.923	14.8564
11.2178	567.223	14.9248
11.2231	570.5	14.9932
11.2294	566.226	15.0615
11.2347	569.523	15.1299
11.2408	572.477	15.1982
11.2466	572.478	15.2666
11.2528	570.794	15.335
11.258	580.9986	15.40332
11.2641	591.118	15.47168
11.2692	592.479	15.54
11.27589	597.269	15.6084
11.2803	601.242	15.6768
11.2861	600.271	15.7451
11.2915	600.226	15.8135
11.2974	602.273	15.8818
11.3031	602.531	15.9502
11.3085	600.063	16.0186
11.315	606.5249	16.0869
11.3215	617.481	16.1553
11.326	620.41	16.2236
11.332	625.657	16.292
11.3368	630.879	16.3604
11.3425	631.647	16.4287
11.3488	634.4646	16.49707
11.3542	633.788	16.56543
11.3606	631.838	16.6338
11.3667	631.384	16.7021
11.3709	636.8894	16.7705
11.3781	642.551	16.8389
11.38328	648.113	16.9072
11.3892	652.553	16.9756
11.3935	658.207	17.0439
11.3993	661.8208	17.1123
11.4057	663.72	17.1807
11.4112	663.126	17.249
11.418	660.997	17.3174
11.4229	659.63	17.3857
11.42799	663.857	17.4541
11.4342	669.716	17.5225
11.4394	672.06	17.59082
11.4461	680.055	17.65918
11.451	685.135	17.7275
11.4576	688.704	17.7959
11.4629	691.994	17.8643
11.4692	692.964	17.9326
11.4743	689.529	18.001
11.4804	687.897	18.0693
11.4855	693.435	18.1377
11.4914	693.417	18.2061
11.4976	697.317	18.2744
11.5021	705.125	18.3428
11.5087	709.27	18.4111
11.5138	715.757	18.4795
11.5201	721.3479	18.5479
11.5256	721.438	18.6162
11.5307	717.458	18.68457
11.5368	716.146	18.75293
11.541	719.979	18.8213
11.5491	720.6308	18.8896
11.5535	721.155	18.958
11.5594	729.12	19.0264
11.5648	732.5658	19.0947
11.5712	737.965	19.1631
11.5767	745.141	19.2314
11.5817	749.264	19.2998
11.5884	745.348	19.3682
11.593	743.889	19.4365
11.5996	746.364	19.5049
11.605	746.555	19.5732
11.61153	744.242	19.6416
11.6162	750.884	19.71
11.6223	755.93	19.77832
11.628	760.881	19.84668
11.634	766.225	19.915
[...]
13.6748	829.551	44.417
13.67805	817.794	44.4463
13.6805	829.195	44.4756
13.6832	822.166	44.5049
13.6846	824.504	44.53418
13.68747	824.424	44.5635
13.6899	825.634	44.5928
13.6929	824.045	44.62207
13.6955	821.703	44.6514
13.69739	828.15	44.6807
13.6994	821.041	44.71
13.7023	828.259	44.7393
13.7036	819.113	44.7686
13.7081	828.812	44.7979
13.7107	817.853	44.8271
13.7125	826.4314	44.8564
13.7148	820.158	44.8857
13.7168	827.259	44.915
13.719	820.722	44.9443
13.722	823.0578	44.9736
13.7245	823.567	45.00293
13.7272	824.852	45.0322
13.7291	823.667	45.0615
13.73091	820.375	45.09082
13.735	828.6546	45.1201
13.7368	818.931	45.1494
13.7388	824.981	45.1787
13.74109	815.464	45.208
13.7436	832.283	45.2373
13.74646	816.224	45.2666
13.7491	827.275	45.2959
13.7517	816.015	45.3252
13.7538	828.704	45.3545
13.7564	818.01	45.3838
13.7584	824.784	45.4131
13.7614	821.794	45.4424
13.7632	826.558	45.47168
13.766	820.965	45.501
13.7687	819.252	45.5303
13.7712	825.773	45.55957
13.773	820.794	45.5889
13.7757	827.527	45.6182
13.7789	818.859	45.6475
13.7801	828.452	45.6768
13.78278	815.6228	45.7061
13.7857	828.588	45.7354
13.7884	816.951	45.7646
13.7902	828.634	45.7939
13.7938	816.114	45.8232
13.7944	827.327	45.8525
13.7977	817.631	45.8818
13.8003	824.655	45.9111
13.80237	818.644	45.94043
13.806	824.084	45.9697
13.8081	823.09	45.999
13.8094	818.803	46.02832
13.8126	820.602	46.0576
13.8151	819.647	46.0869
13.817	825.013	46.1162
13.8193	813.864	46.1455
13.8219	825.088	46.1748
13.82444	816.684	46.2041
13.827	824.954	46.2334
13.82935	811.782	46.2627
13.8313	825.067	46.292
13.8347	817.169	46.3213
13.8365	822.614	46.3506
13.839	815.148	46.3799
13.8414	818.752	46.40918
13.8443	816.6405	46.4385
13.8528	-101.488	46.4678
13.8537	-52.4595	46.49707
13.8535	-42.8999	46.5264
13.8545	-41.5937	46.5557
13.85708	-50.1443	46.585
13.8597	-40.6892	46.6143
13.861	-51.1421	46.6436
13.8641	-40.8888	46.6729
13.8663	-49.837	46.7021
13.8697	-39.7872	46.7314
13.8707	-49.552	46.7607
13.8739	-42.1812	46.79
13.877	-48.6584	46.8193
13.8787	-41.2168	46.8486
13.8804	-44.9762	46.87793
13.8837	-49.1493	46.9072
13.8862	-43.5471	46.9365
13.8887	-47.8836	46.96582
13.8898	-41.9569	46.9951
13.894	-50.4555	47.0244
13.895	-38.3731	47.0537
13.8974	-51.77486	47.083
13.9007	-40.7503	47.1123
13.90314	-53.8033	47.1416
13.90451	-38.30835	47.1709
13.9081	-51.217	47.2002
13.9108	-41.2384	47.2295
13.9141	-49.707	47.2588
13.9146	-40.3538	47.2881
13.9182	-48.61319	47.3174
13.9204	-45.887	47.34668
13.9237	-45.10096	47.376
13.9241	-43.3156	47.4053
13.9271	-44.0751	47.43457
13.92918	-49.2894	47.4639
13.9325	-40.059	47.4932
13.9351	-49.1386	47.5225
13.9377	-39.7877	47.5518
13.94	-51.3682	47.5811
13.9428	-36.8681	47.6104
13.9444	-51.6225	47.6396
13.947	-40.92244	47.6689
13.9495	-51.0938	47.6982
13.95206	-39.9001	47.7275
13.954	-49.5623	47.7568
13.9575	-41.0655	47.7861
13.9582	-46.70512	47.81543
13.9614	-44.9276	47.8447
13.9632	-47.9367	47.874
13.9662	-45.4913	47.90332
13.9687	-40.7752	47.9326
13.9718	-48.55	47.9619
13.9742	-42.3628	47.9912
13.9759	-50.8045	48.0205
13.97915	-39.8304	48.0498
13.9815	-50.1961	48.0791
13.9845	-40.081	48.1084
13.9855	-48.3245	48.1377
13.9885	-41.8925	48.167
13.9901	-51.2462	48.1963
13.9934	-44.4513	48.2256
13.9961	-44.9486	48.2549
13.998	-45.2489	48.28418
14.0009	-46.9528	48.3135
14.0029	-47.3393	48.3428
14.0043	-43.6249	48.37207
14.0074	-50.8152	48.4014
14.0104	-42.6298	48.4307
14.0134	-47.2688	48.46
14.0148	-39.3305	48.4893
14.0174	-52.1347	48.5186
14.01998	-40.4169	48.5479
14.0221	-50.2889	48.5771
14.0247	-40.9202	48.6064
14.0277	-49.6628	48.6357
14.0289	-40.5347	48.665
14.0318	-46.37077	48.6943
14.03477	-45.1003	48.7236
14.0366	-42.1238	48.7432