Folder: Stress_Strain_Analysis_Tools/data/processed_data_files/tensile (part 51)

File: 0.254_solid_uprint_typeiv_090_r(6).dat
MTS793|BTW|ENU|1|2|.|/|:|1|0|0|A

Data Header:			0.254_solid_uprint_typeiv_090_r0			Time:	20.0254	s	4/14/2019 1:11:27 AM
Data Acquisition:	Timed
Station Name:	ft40.cfg
Test File Name:	monotonic_0.2540_typeiv_solid_090_uprint.tst
Displacement	Force	Running Time
mm	N	s
-40.0409	-154.082	0.0302734
-40.0391	-152.139	0.0986328
-40.0334	-149.6313	0.166992
-40.0273	-147.042	0.235352
-40.0221	-144.1418	0.303711
-40.0159	-143.646	0.37207
-40.0111	-140.915	0.44043
-40.0056	-134.32	0.508789
-39.9994	-125.78	0.577148
-39.9942	-123.934	0.645508
-39.9879	-118.477	0.713867
-39.9815	-115.026	0.782227
-39.977	-113.7	0.850586
-39.9707	-109.646	0.918945
-39.9644	-108.347	0.987305
-39.95916	-108.359	1.05566
-39.9527	-106.565	1.12402
-39.9478	-101.555	1.19238
-39.9416	-93.6836	1.26074
-39.93663	-90.0363	1.3291
-39.9314	-83.9408	1.39746
-39.9255	-80.3714	1.46582
-39.92	-78.7436	1.53418
-39.9132	-74.08094	1.60254
-39.9082	-70.8965	1.6709
-39.9029	-71.1738	1.73926
-39.8982	-71.3663	1.80762
-39.89003	-66.084	1.87598
-39.8857	-60.4577	1.94434
-39.8794	-56.50108	2.0127
-39.8734	-48.2045	2.08105
-39.8677	-43.6381	2.14941
-39.8619	-42.2556	2.21777
-39.85656	-38.1149	2.28613
-39.8507	-35.3247	2.35449
-39.8458	-35.6562	2.42285
-39.8406	-36.8259	2.49121
-39.8335	-30.1427	2.55957
-39.8281	-23.0994	2.62793
-39.82304	-22.7426	2.69629
-39.81678	-15.6186	2.76465
-39.8113	-9.51831	2.83301
-39.8052	-8.43151	2.90137
-39.8011	-5.07722	2.96973
-39.7945	1.91865	3.03809
-39.7888	1.384208	3.10645
-39.7834	-1.088732	3.1748
-39.7777	4.07303	3.24316
-39.7717	9.72809	3.31152
-39.7657	11.1063	3.37988
-39.7606	17.4761	3.44824
-39.7546	23.4894	3.5166
-39.7483	27.7123	3.58496
-39.74194	31.202	3.65332
-39.737	36.51112	3.72168
-39.7327	36.23925	3.79004
-39.72488	34.1385	3.8584
-39.7203	40.2845	3.92676
-39.71524	46.1915	3.99512
-39.7093	46.1137	4.06348
-39.7035	51.109	4.13184
-39.6959	56.1536	4.2002
-39.6905	61.0543	4.26855
-39.68631	67.66497	4.33691
-39.68111	73.0653	4.40527
-39.6749	71.7768	4.47363
-39.6694	72.2437	4.54199
-39.6635	75.7475	4.61035
-39.6574	80.2937	4.67871
-39.6531	78.6823	4.74707
-39.64682	83.92131	4.81543
-39.6407	91.0193	4.88379
-39.6357	95.1007	4.95215
-39.6294	101.211	5.02051
-39.62373	105.475	5.08887
-39.61882	106.172	5.15723
-39.6125	106.498	5.22559
-39.60614	111.272	5.29395
-39.6013	113.908	5.3623
-39.5954	116.635	5.43066
-39.59	119.628	5.49902
-39.5835	123.9192	5.56738
-39.5771	127.919	5.63574
-39.5722	135.877	5.7041
-39.5662	140.0374	5.77246
-39.5605	140.4187	5.84082
-39.5548	143.7924	5.90918
-39.5496	148.691	5.97754
-39.5444	150.059	6.0459
-39.5381	150.086	6.11426
-39.5329	153.172	6.18262
-39.5265	156.671	6.25098
-39.5219	159.752	6.31934
-39.5147	167.902	6.3877
-39.5091	173.2702	6.45605
-39.5036	172.976	6.52441
-39.4969	176.686	6.59277
-39.4932	181.448	6.66113
-39.4868	184.661	6.72949
-39.481	184.687	6.79785
-39.4761	188.253	6.86621
-39.4696	189.278	6.93457
-39.4641	191.404	7.00293
-39.458	199.03	7.07129
-39.4536	204.7934	7.13965
-39.4472	205.434	7.20801
-39.4418	207.424	7.27637
-39.4357	217.534	7.34473
-39.4297	218.9	7.41309
-39.4248	216.835	7.48145
-39.4185	220.396	7.5498
-39.413	222.411	7.61816
-39.4077	224.018	7.68652
-39.401	229.6646	7.75488
-39.3956	235.456	7.82324
-39.39069	236.003	7.8916
-39.3842	239.665	7.95996
-39.3794	249.695	8.02832
-39.3722	252.231	8.09668
-39.3675	250.457	8.16504
-39.3605	254.937	8.2334
-39.3555	254.497	8.30176
-39.3499	257.203	8.37012
-39.34428	260.57	8.43848
-39.33889	267.174	8.50684
-39.3336	267.644	8.5752
-39.3281	271.979	8.64355
-39.3217	280.395	8.71191
-39.3149	284.185	8.78027
-39.3101	283.845	8.84863
-39.3053	285.754	8.91699
-39.2985	289.197	8.98535
-39.293	289.368	9.05371
-39.2878	291.775	9.12207
-39.2819	298.609	9.19043
-39.2756	297.464	9.25879
-39.269	301.429	9.32715
-39.265	310.65	9.39551
-39.2594	314.52	9.46387
-39.2529	315.793	9.53223
-39.2484	318.834	9.60059
-39.2411	320.933	9.66895
-39.2358	322.3775	9.7373
-39.2297	321.837	9.80566
-39.2249	325.48	9.87402
-39.2185	326.9628	9.94238
-39.2133	331.455	10.0107
-39.2067	338.542	10.0791
-39.2025	343.324	10.1475
-39.1965	345.532	10.21582
-39.19146	349.097	10.28418
-39.1859	350.64	10.3525
-39.1801	351.685	10.4209
-39.1743	353.405	10.4893
-39.1689	353.404	10.5576
-39.162	353.15	10.626
-39.1566	358.675	10.6943
-39.1513	365.469	10.7627
-39.145	370.864	10.8311
-39.1394	375.244	10.8994
-39.1332	378.961	10.9678
-39.1287	379.475	11.0361
-39.1213	382.521	11.1045
-39.1161	381.912	11.1729
-39.1116	382.284	11.2412
-39.1051	382.4165	11.30957
-39.09956	385.794	11.37793
-39.0941	394.611	11.4463
-39.0876	396.321	11.5146
-39.0827	400.262	11.583
-39.0774	406.874	11.6514
-39.0709	405.178	11.7197
-39.06493	407.855	11.7881
-39.06031	410.2	11.8564
-39.05518	409.112	11.9248
-39.0481	407.963	11.9932
-39.0441	409.262	12.0615
-39.0361	418.124	12.1299
-39.0315	418.018	12.1982
-39.0255	423.911	12.2666
-39.0208	429.548	12.335
-39.0143	429.304	12.40332
-39.009	433.105	12.47168
-39.0032	434.7207	12.54
-38.997	432.081	12.6084
-38.9919	430.483	12.6768
-38.9867	433.225	12.7451
-38.98	438.97	12.8135
-38.974	438.289	12.8818
-38.96925	442.537	12.9502
-38.9632	448.857	13.0186
-38.95718	448.565	13.0869
-38.9521	451.721	13.1553
-38.9464	454.83	13.2236
-38.9407	452.678	13.292
-38.9343	447.441	13.3604
-38.9291	451.87	13.4287
-38.9228	455.499	13.49707
-38.918	452.618	13.56543
-38.9106	456.715	13.6338
-38.9056	461.6275	13.7021
-38.8996	462.767	13.7705
-38.8948	465.028	13.8389
-38.889	467.429	13.9072
-38.88237	465.991	13.9756
-38.87825	460.744	14.0439
-38.8717	462.757	14.1123
-38.866	464.63	14.1807
-38.86076	461.644	14.249
-38.8543	462.74	14.3174
-38.8495	467.171	14.3857
-38.8431	469.526	14.4541
-38.8382	470.924	14.5225
-38.832	472.706	14.59082
-38.8256	470.477	14.65918
-38.8209	467.845	14.7275
-38.8151	468.507	14.7959
-38.8094	466.446	14.8643
-38.803	465.726	14.9326
-38.79792	466.316	15.001
-38.793	466.555	15.0693
-38.7857	469.194	15.1377
-38.7804	470.257	15.2061
-38.7753	473.22	15.2744
-38.7689	470.756	15.3428
-38.76474	467.256	15.4111
-38.7561	468.2695	15.4795
-38.7522	466.014	15.5479
-38.74651	464.675	15.6162
-38.7416	462.197	15.68457
-38.7355	464.352	15.75293
-38.7285	463.63	15.8213
-38.7233	466.24	15.8896
-38.7177	467.735	15.958
-38.7119	465.393	16.0264
-38.7071	465.375	16.0947
-38.7002	464.6637	16.1631
-38.69524	463.521	16.2314
-38.6902	460.522	16.2998
-38.68425	459.153	16.3682
-38.6787	458.089	16.4365
-38.6721	458.543	16.5049
-38.6671	460.969	16.5732
-38.6607	460.615	16.6416
-38.6571	458.639	16.71
-38.64893	459.508	16.77832
-38.6435	462.184	16.84668
-38.6386	460.197	16.915
-38.6327	458.411	16.9834
-38.6277	455.585	17.0518
-38.6217	452.463	17.1201
-38.6161	455.041	17.1885
-38.6095	455.065	17.2568
-38.6048	454.011	17.3252
-38.5985	454.983	17.3936
-38.593	456.246	17.4619
-38.5862	457.389	17.5303
-38.5809	455.196	17.5986
-38.57526	455.374	17.667
-38.5695	454.168	17.7354
-38.5635	449.436	17.8037
-38.5591	448.861	17.87207
-38.5526	450.765	17.94043
-38.5479	448.504	18.0088
-38.54108	449.576	18.0771
-38.5354	453.311	18.1455
-38.529	456.773	18.2139
-38.5243	453.644	18.2822
-38.5184	452.749	18.3506
-38.51403	450.813	18.4189
-38.507	447.299	18.4873
-38.501	449.758	18.5557
-38.4954	448.649	18.624
-38.4893	445.858	18.6924
-38.4845	445.368	18.7607
-38.48	452.02	18.8291
-38.473	453.406	18.8975
-38.4665	451.437	18.96582
-38.46109	454.205	19.03418
-38.4553	452.1929	19.1025
[...]
-38.1546	443.325	22.7256
-38.1504	440.779	22.7549
-38.1498	447.774	22.78418
-38.1482	441.8	22.8135
-38.1436	444.544	22.8428
-38.1427	440.911	22.87207
-38.1413	448.6478	22.9014
-38.1369	440.626	22.9307
-38.1344	442.615	22.96
-38.1319	441.645	22.9893
-38.1304	447.488	23.0186
-38.1279	442.708	23.0479
-38.1245	441.126	23.0771
-38.1225	442.42	23.1064
-38.1203	442.21	23.1357
-38.1173	444.34	23.165
-38.1153	438.209	23.1943
-38.11274	448.093	23.2236
-38.1098	439.794	23.25293
-38.1066	446.599	23.2822
-38.1055	436.865	23.3115
-38.1032	446.084	23.34082
-38.1009	439.717	23.3701
-38.0983	444.154	23.3994
-38.095	439.681	23.4287
-38.093	446.091	23.458
-38.09082	440.5148	23.4873
-38.0883	442.983	23.5166
-38.0848	443.576	23.5459
-38.083	442.302	23.5752
-38.0811	444.555	23.6045
-38.0783	440.647	23.6338
-38.0762	446.1915	23.6631
-38.0737	437.91	23.6924
-38.0716	445.981	23.72168
-38.06834	439.8338	23.751
-38.066	448.6788	23.7803
-38.0646	436.157	23.80957
-38.06086	445.065	23.8389
-38.0585	437.981	23.8682
-38.0563	446.103	23.8975
-38.05365	436.289	23.9268
-38.051	444.93	23.9561
-38.0502	441.52	23.9854
-38.0473	441.008	24.0146
-38.045	437.693	24.0439
-38.0418	440.252	24.0732
-38.038	442.789	24.1025
-38.03743	438.457	24.1318
-38.03334	441.066	24.1611
-38.0322	437.413	24.19043
-38.0293	443.629	24.2197
-38.0274	435.081	24.249
-38.0247	441.831	24.27832
-38.0229	438.241	24.3076
-38.0198	443.662	24.3369
-38.0173	436.46	24.3662
-38.015	442.638	24.3955
-38.0121	437.395	24.4248
-38.0097	439.672	24.4541
-38.0076	438.324	24.4834
-38.0051	439.739	24.5127
-38.0022	437.256	24.542
-38.0006	436.083	24.5713
-37.99749	438.15	24.6006
-37.99585	436.383	24.6299
-37.9928	436.084	24.65918
-37.9893	430.673	24.6885
-37.9881	438.909	24.7178
-37.9855	72.2734	24.74707
-37.9821	-50.1541	24.7764
-37.9798	-47.8114	24.8057
-37.9775	-38.1492	24.835
-37.9747	-44.535	24.8643
-37.9718	-43.4983	24.8936
-37.971	-43.5751	24.9229
-37.9678	-41.8895	24.9521
-37.9656	-41.8875	24.9814
-37.96191	-44.762	25.0107
-37.9606	-38.9507	25.04
-37.9577	-44.4131	25.0693
-37.9565	-40.2423	25.0986
-37.9538	-47.3903	25.12793
-37.951	-39.4977	25.1572
-37.9487	-48.2015	25.1865
-37.9458	-38.0244	25.21582
-37.9439	-47.0519	25.2451
-37.9411	-38.3754	25.2744
-37.9387	-47.0192	25.3037
-37.9362	-41.6657	25.333
-37.9339	-42.2861	25.3623
-37.9322	-41.9059	25.3916
-37.92897	-42.4591	25.4209
-37.9264	-43.1537	25.4502
-37.9243	-39.95853	25.4795
-37.9219	-46.12368	25.5088
-37.92	-41.02319	25.5381
-37.9171	-46.1931	25.5674
-37.9146	-37.23624	25.59668
-37.9123	-48.0605	25.626
-37.9095	-38.7033	25.6553
-37.90807	-45.0135	25.68457
-37.9048	-39.2151	25.7139
-37.9028	-48.5118	25.7432
-37.8989	-39.3918	25.7725
-37.8973	-44.7854	25.8018
-37.8957	-40.6349	25.8311
-37.8928	-47.8554	25.8604
-37.8892	-42.4139	25.8896
-37.88866	-42.7761	25.9189
-37.8854	-42.7352	25.9482
-37.88348	-42.883	25.9775
-37.8804	-42.5252	26.0068
-37.8777	-41.2782	26.0361
-37.87508	-47.38839	26.06543
-37.8724	-40.2693	26.0947
-37.8709	-43.6678	26.124
-37.8688	-38.81786	26.15332
-37.8656	-46.3548	26.1826
-37.8623	-40.0077	26.2119
-37.8615	-46.1505	26.2412
-37.8576	-40.7075	26.2705
-37.8554	-45.0674	26.2998
-37.8542	-40.0935	26.3291
-37.8507	-44.53	26.3584
-37.8496	-42.4912	26.3877
-37.8458	-42.6525	26.417
-37.8451	-42.0467	26.4463
-37.8419	-42.3355	26.4756
-37.8378	-43.6718	26.5049
-37.8364	-37.5034	26.53418
-37.8334	-44.5178	26.5635
-37.8321	-42.6194	26.5928
-37.82933	-45.622	26.62207
-37.8269	-39.6035	26.6514
-37.8241	-43.9608	26.6807
-37.8223	-42.3542	26.71
-37.8197	-45.3005	26.7393
-37.817	-40.1135	26.7686
-37.8139	-44.8274	26.7979
-37.811	-45.5974	26.8271
-37.8096	-41.3826	26.8564
-37.8073	-49.6299	26.876

File: 0.254_solid_uprint_typeiv_090_r(7).dat
MTS793|BTW|ENU|1|2|.|/|:|1|0|0|A

Data Header:			0.254_solid_uprint_typeiv_090_r0			Time:	20.0173	s	4/14/2019 1:14:07 AM
Data Acquisition:	Timed
Station Name:	ft40.cfg
Test File Name:	monotonic_0.2540_typeiv_solid_090_uprint.tst
Displacement	Force	Running Time
mm	N	s
-40.0408	-30.5304	0.0222168
-40.0409	-29.62788	0.0905762
-40.0348	-24.1626	0.158936
-40.0301	-18.62421	0.227295
-40.0243	-14.6338	0.2956543
-40.0183	-8.59791	0.364014
-40.0136	-5.13887	0.432373
-40.0061	-4.26116	0.500732
-40.0009	0.109407	0.5690918
-39.9955	0.410625	0.637451
-39.9901	1.16959	0.705811
-39.9842	5.33428	0.77417
-39.9781	11.0395	0.8425293
-39.9724	12.7324	0.910889
-39.966	21.5614	0.979248
-39.9608	25.6342	1.04761
-39.956	29.3758	1.11597
-39.9505	33.7501	1.18433
-39.9446	36.6845	1.25269
-39.9377	36.4214	1.32104
-39.9317	38.1559	1.3894
-39.92701	42.06007	1.45776
-39.9213	45.771	1.526123
-39.9158	47.965	1.59448
-39.9102	54.04097	1.66284
-39.9042	59.0733	1.7312
-39.8985	64.6272	1.79956
-39.8933	69.922	1.86792
-39.8865	72.6937	1.93628
-39.8817	70.5674	2.00464
-39.8752	73.2556	2.072998
-39.8701	78.0096	2.14136
-39.8638	78.0038	2.20972
-39.858	82.2955	2.27808
-39.8542	86.8009	2.34644
-39.8462	90.715	2.41479
-39.8427	98.4363	2.48315
-39.836	103.268	2.55151
-39.8299	105.421	2.619873
-39.82436	105.472	2.68823
-39.8189	109.017	2.75659
-39.8129	111.514	2.82495
-39.8069	112.529	2.89331
-39.8013	117.059	2.96167
-39.7962	121.094	3.03003
-39.7902	123.108	3.09839
-39.7834	130.583	3.166748
-39.7792	137.388	3.23511
-39.7731	138.013	3.30347
-39.7675	140.496	3.37183
-39.7618	144.709	3.44019
-39.7559	146.757	3.50854
-39.7507	145.638	3.5769
-39.7445	149.487	3.64526
-39.7398	151.5899	3.713623
-39.734	156.569	3.78198
-39.7271	162.278	3.85034
-39.7235	168.12	3.9187
-39.716	167.445	3.98706
-39.7109	172.674	4.05542
-39.7046	179.094	4.12378
-39.6997	179.13	4.19214
-39.6941	179.365	4.260498
-39.688	183.178	4.32886
-39.6817	183.113	4.39722
-39.6764	187.817	4.46558
-39.6712	195.335	4.53394
-39.6664	198.353	4.60229
-39.6593	199.651	4.67065
-39.6527	206.216	4.73901
-39.6479	212.785	4.807373
-39.6414	211.084	4.87573
-39.63599	213.151	4.94409
-39.63	215.155	5.01245
-39.6254	214.605	5.08081
-39.6198	218.343	5.14917
-39.6133	224.189	5.21753
-39.6072	227.319	5.28589
-39.6019	229.285	5.354248
-39.5964	238.152	5.42261
-39.5912	242.956	5.49097
-39.5864	241.723	5.55933
-39.5793	246.438	5.62769
-39.57259	248.467	5.69604
-39.5691	249.0903	5.7644
-39.5617	251.973	5.83276
-39.5575	255.571	5.901123
-39.5523	254.879	5.96948
-39.545	259.643	6.03784
-39.5397	269.959	6.1062
-39.5342	271.383	6.17456
-39.5282	274.189	6.24292
-39.5233	278.47	6.31128
-39.5163	280.138	6.37964
-39.5099	280.749	6.447998
-39.5051	284.31	6.51636
-39.49968	284.349	6.58472
-39.4937	283.785	6.65308
-39.489	288.903	6.72144
-39.4831	297.192	6.78979
-39.4775	298.4808	6.85815
-39.4711	303.84	6.92651
-39.4666	307.686	6.994873
-39.4597	308.374	7.06323
-39.4555	311.288	7.13159
-39.4486	310.88	7.19995
-39.44244	312.664	7.26831
-39.4361	311.613	7.33667
-39.4315	318.149	7.40503
-39.4259	322.542	7.47339
-39.4201	326.034	7.541748
-39.4149	331.803	7.61011
-39.4077	335.544	7.67847
-39.4025	338.155	7.74683
-39.3966	341.537	7.81519
-39.391	340.406	7.88354
-39.3847	338.241	7.9519
-39.3799	338.526	8.02026
-39.3737	346.906	8.088623
-39.368	348.448	8.15698
-39.3637	351.052	8.22534
-39.3575	357.231	8.2937
-39.35133	359.775	8.36206
-39.3465	365.18	8.43042
-39.3404	367.113	8.49878
-39.3344	367.049	8.56714
-39.3302	365.921	8.635498
-39.3224	366.837	8.70386
-39.3186	371.662	8.77222
-39.3119	371.306	8.84058
-39.30508	375.652	8.90894
-39.30077	379.849	8.97729
-39.2942	383.418	9.04565
-39.28923	390.1492	9.11401
-39.2826	391.572	9.182373
-39.278	391.9122	9.25073
-39.2723	390.384	9.31909
-39.2663	393.033	9.38745
-39.2611	394.0119	9.45581
-39.2554	394.899	9.52417
-39.2483	396.9	9.59253
-39.2439	400.843	9.66089
-39.2378	405.395	9.729248
-39.2318	411.176	9.79761
-39.226	413.316	9.86597
-39.2211	413.8096	9.93433
-39.2161	412.411	10.0027
-39.2099	415.4014	10.071
-39.2047	413.551	10.1394
-39.1972	412.642	10.2078
-39.1924	417.1022	10.2761
-39.1868	417.956	10.3445
-39.1813	423.903	10.4128
-39.1754	427.626	10.4812
-39.1689	426.5741	10.5496
-39.1627	427.819	10.61792
-39.1581	430.837	10.6863
-39.153	432.089	10.7546
-39.1469	428.405	10.823
-39.1409	428.2	10.8914
-39.1351	429.318	10.9597
-39.13031	426.938	11.0281
-39.1235	432.571	11.0964
-39.1191	436.393	11.1648
-39.11343	434.398	11.2332
-39.1073	435.653	11.3015
-39.1009	440.765	11.3699
-39.0953	439.739	11.4382
-39.0896	434.6004	11.5066
-39.0847	434.59	11.575
-39.0787	434.586	11.6433
-39.0727	433.758	11.71167
-39.0685	436.704	11.78
-39.0609	438.537	11.8484
-39.0557	436.081	11.9167
-39.049	438.293	11.9851
-39.0441	444.71	12.0535
-39.039	442.402	12.1218
-39.0321	438.2356	12.1902
-39.0278	439.4133	12.2585
-39.0211	437.836	12.3269
-39.016	435.013	12.3953
-39.011	437.108	12.4636
-39.0046	437.147	12.532
-38.9981	435.146	12.6003
-38.993	437.14	12.6687
-38.9861	442.579	12.7371
-38.9807	439.985	12.80542
-38.9758	440.144	12.8738
-38.9692	439.721	12.9421
-38.9641	435.702	13.0105
-38.9585	434.087	13.0789
-38.952	434.363	13.1472
-38.948	432.073	13.2156
-38.942	430.955	13.2839
-38.93565	433.408	13.3523
-38.9306	437.982	13.4207
-38.9241	434.83	13.489
-38.9185	435.752	13.5574
-38.9139	437.0275	13.6257
-38.9076	433.413	13.6941
-38.9018	430.68	13.7625
-38.8962	430.9429	13.8308
-38.8896	426.857	13.89917
-38.8844	426.12	13.9675
-38.87886	430.373	14.0359
-38.8726	432	14.1042
-38.8686	431.259	14.1726
-38.8622	431.262	14.241
-38.8567	432.919	14.3093
-38.8512	432.239	14.3777
-38.8449	429.398	14.446
-38.8387	427.04	14.5144
-38.8337	424.148	14.5828
-38.8278	422.685	14.6511
-38.822	428.034	14.7195
-38.8166	427.23	14.7878
-38.811	427.3678	14.8562
-38.8035	428.669	14.9246
-38.79847	429.872	14.99292
-38.7939	431.035	15.0613
-38.7889	429.719	15.1296
-38.7819	425.126	15.198
-38.7764	420.713	15.2664
-38.7714	420.162	15.3347
-38.7655	423.08	15.4031
-38.759	421.641	15.4714
-38.7529	424.317	15.5398
-38.7485	427.267	15.6082
-38.7413	427.55	15.6765
-38.7382	428.7247	15.7449
-38.7311	429.061	15.8132
-38.7254	426.231	15.8816
-38.7195	421.703	15.95
-38.71394	422.253	16.0183
-38.7093	421.781	16.08667
-38.7027	421.923	16.155
-38.6958	423.928	16.2234
-38.6912	424.7941	16.2917
-38.6848	426.575	16.3601
-38.6788	429.9772	16.4285
-38.6747	427.763	16.4968
-38.6682	426.041	16.5652
-38.6629	422.177	16.6335
-38.6567	421.783	16.7019
-38.6513	420.149	16.7703
-38.6454	420.049	16.8386
-38.6406	421.857	16.907
-38.634	422.828	16.9753
-38.6276	423.92	17.0437
-38.6226	427.635	17.1121
-38.6164	426.751	17.18042
-38.6118	422.318	17.2488
-38.60516	422.685	17.3171
-38.6	423.2453	17.3855
-38.5942	420.211	17.4539
-38.5878	418.256	17.5222
-38.5818	419.604	17.5906
-38.5767	418.182	17.6589
-38.5712	423.4	17.7273
-38.5654	426.194	17.7957
-38.5591	424.646	17.864
-38.555	423.469	17.9324
-38.5483	422.086	18.0007
-38.5427	425.409	18.0691
-38.5364	418.895	18.1375
-38.5308	419.414	18.2058
-38.5262	420.376	18.27417
-38.5205	417.844	18.3425
-38.5146	419.784	18.4109
-38.5092	424.543	18.4792
-38.503	423.059	18.5476
-38.49638	421.808	18.616
-38.4919	424.259	18.6843
-38.4861	425.263	18.7527
-38.4807	420.554	18.821
-38.4752	419.599	18.8894
-38.468	418.701	18.9578
-38.46339	417.021	19.0261
-38.4566	420.684	19.0945
-38.4516	423.784	19.1628
-38.4461	420.718	19.2312
[...]
-38.2144	415.06	22.0144
-38.2115	420.426	22.0437
-38.2089	418.511	22.073
-38.2065	417.901	22.1023
-38.2038	417.417	22.1316
-38.2023	418.098	22.1609
-38.1993	420.717	22.1902
-38.1973	416.038	22.2195
-38.194	420.2485	22.2488
-38.193	416.512	22.2781
-38.1898	420.317	22.3074
-38.1867	412.04	22.33667
-38.1848	419.557	22.366
-38.1813	417.398	22.3953
-38.1806	420.807	22.4246
-38.1769	414.797	22.4539
-38.1761	419.2337	22.4832
-38.1729	418.456	22.5125
-38.1698	416.7757	22.5417
-38.1673	417.773	22.571
-38.1658	418.838	22.6003
-38.16383	420.1582	22.6296
-38.1605	416.791	22.6589
-38.1578	418.437	22.6882
-38.1558	415.541	22.7175
-38.1532	420.446	22.7468
-38.1502	415.563	22.7761
-38.1489	421.254	22.80542
-38.1464	415.568	22.8347
-38.1438	418.866	22.864
-38.1407	414.692	22.8933
-38.1384	420.141	22.9226
-38.1353	418.613	22.9519
-38.1338	416.049	22.9812
-38.1309	417.125	23.0105
-38.1281	417.138	23.0398
-38.1255	416.897	23.0691
-38.1249	414.372	23.0984
-38.1213	420.733	23.1277
-38.1193	416.011	23.157
-38.1159	419.708	23.1863
-38.1132	410.979	23.2156
-38.1115	422.246	23.2449
-38.1098	412.371	23.27417
-38.1068	419.279	23.3035
-38.1037	412.191	23.3328
-38.1028	422.285	23.3621
-38.09948	412.749	23.3914
-38.0961	417.195	23.4207
-38.095	414.751	23.45
-38.0921	417.216	23.4792
-38.0888	416.259	23.5085
-38.08728	414.09	23.5378
-38.08559	420.594	23.5671
-38.0818	411.285	23.5964
-38.0799	418.226	23.6257
-38.0779	412.732	23.655
-38.0756	419.6377	23.6843
-38.0729	411.264	23.7136
-38.0709	419.545	23.74292
-38.0674	411.407	23.7722
-38.0654	419.886	23.8015
-38.0627	409.314	23.8308
-38.0604	418.46	23.8601
-38.0586	414.327	23.8894
-38.05423	417.194	23.9187
-38.0525	410.376	23.948
-38.0506	414.021	23.9773
-38.0482	413.427	24.0066
-38.0455	410.2702	24.0359
-38.0444	414.4957	24.0652
-38.0408	410.913	24.0945
-38.0384	413.897	24.1238
-38.0363	406.219	24.1531
-38.0336	411.136	24.1824
-38.03093	405.371	24.21167
-38.0258	-22.0425	24.241
-38.0253	-43.5454	24.2703
-38.0226	-38.3082	24.2996
-38.0205	-43.3908	24.3289
-38.0189	-40.8802	24.3582
-38.0162	-45.168	24.3875
-38.0134	-40.7361	24.4167
-38.0108	-40.4047	24.446
-38.0088	-42.3777	24.4753
-38.00589	-40.3279	24.5046
-38.00362	-42.3466	24.5339
-38.0015	-41.5541	24.5632
-37.9989	-45.7121	24.5925
-37.9954	-38.3025	24.6218
-37.9933	-43.9977	24.6511
-37.9927	-40.7949	24.68042
-37.989	-45.7101	24.7097
-37.9862	-40.2216	24.739
-37.9839	-45.1031	24.7683
-37.9815	-41.8509	24.7976
-37.9789	-41.2328	24.8269
-37.9776	-39.2021	24.8562
-37.97403	-42.8395	24.8855
-37.971	-45.9333	24.9148
-37.97	-40.0276	24.9441
-37.9671	-44.1649	24.9734
-37.96526	-40.3686	25.0027
-37.96236	-45.9013	25.032
-37.9595	-35.8829	25.0613
-37.9575	-46.8105	25.0906
-37.95422	-40.3953	25.1199
-37.95174	-45.1406	25.14917
-37.9505	-37.5345	25.1785
-37.9469	-45.80275	25.2078
-37.9445	-41.10931	25.2371
-37.9425	-42.9526	25.2664
-37.9401	-40.65654	25.2957
-37.9383	-43.8068	25.325
-37.9366	-42.008	25.3542
-37.9322	-39.3107	25.3835
-37.931	-45.2695	25.4128
-37.9279	-40.907	25.4421
-37.92625	-44.7685	25.4714
-37.9239	-38.2244	25.5007
-37.921	-47.8991	25.53
-37.9193	-39.1075	25.5593
-37.9155	-44.7316	25.5886
-37.9139	-38.30402	25.61792
-37.91074	-49.3211	25.6472
-37.909	-39.7833	25.6765
-37.9071	-45.6055	25.7058
-37.9047	-39.2776	25.7351
-37.9015	-45.3654	25.7644
-37.8993	-39.778	25.7937
-37.8961	-43.7674	25.823
-37.8936	-42.9086	25.8523
-37.8911	-44.8985	25.8816
-37.8892	-42.5318	25.9109
-37.8879	-39.9837	25.9402
-37.8838	-45.6871	25.9695
-37.8825	-40.9119	25.9988
-37.8785	-45.4661	26.0281
-37.87709	-41.1032	26.0574
-37.8742	-45.8464	26.08667
-37.8719	-38.9228	26.116
-37.8702	-44.4642	26.1453
-37.8682	-43.6397	26.1648