Folder: Stress_Strain_Analysis_Tools/data/processed_data_files/tensile (part 42)

File: 0.254_solid_dimension_typeiv_4545_r(5).dat
MTS793|BTW|ENU|1|2|.|/|:|1|0|0|A

Data Header:			0.254_solid_dimension_typeiv_4545_r0			Time:	20.0173	s	4/13/2019 8:44:30 PM
Data Acquisition:	Timed
Station Name:	ft40.cfg
Test File Name:	monotonic_0.2540_typeiv_solid_4545_dimension.tst
Displacement	Force	Running Time
mm	N	s
-40.0341	-226.807	0.0219727
-40.0316	-224.125	0.090332
-40.0267	-226.013	0.158691
-40.0196	-222.951	0.227051
-40.0153	-216.8266	0.29541
-40.01	-215.346	0.36377
-40.00457	-213.824	0.432129
-39.9978	-205.982	0.500488
-39.99258	-201.182	0.568848
-39.9864	-197.438	0.637207
-39.9813	-191.07	0.705566
-39.975	-185.663	0.773926
-39.9692	-186.053	0.842285
-39.9636	-182.074	0.910645
-39.9585	-176.488	0.979004
-39.9521	-175.4191	1.04736
-39.9468	-174.706	1.11572
-39.94072	-168.592	1.184082
-39.9353	-163.924	1.25244
-39.9297	-157.557	1.3208
-39.9237	-152.174	1.38916
-39.919	-144.972	1.45752
-39.9132	-145.704	1.52588
-39.9066	-142.629	1.59424
-39.9013	-136.0739	1.6626
-39.8961	-134.241	1.730957
-39.8907	-132.597	1.79932
-39.8841	-128.78	1.86768
-39.87788	-125.032	1.93604
-39.8741	-118.528	2.00439
-39.8673	-114.574	2.07275
-39.8615	-108.443	2.14111
-39.8554	-105.782	2.20947
-39.8497	-101.058	2.277832
-39.8445	-95.87606	2.34619
-39.8404	-93.2149	2.41455
-39.8327	-91.9352	2.48291
-39.82682	-88.8951	2.55127
-39.8218	-86.8594	2.61963
-39.8155	-78.8689	2.68799
-39.8094	-75.2734	2.75635
-39.8044	-70.7885	2.824707
-39.7988	-67.3562	2.89307
-39.794	-59.3332	2.96143
-39.7875	-53.369	3.02979
-39.7823	-53.3218	3.09814
-39.7763	-49.254	3.1665
-39.7694	-48.4526	3.23486
-39.764	-47.3162	3.30322
-39.7589	-40.11879	3.371582
-39.7532	-35.0053	3.43994
-39.7468	-32.7753	3.5083
-39.7419	-29.6288	3.57666
-39.73698	-20.5368	3.64502
-39.7305	-14.9009	3.71338
-39.725	-14.3407	3.78174
-39.7186	-10.8383	3.8501
-39.7134	-4.49376	3.918457
-39.7072	-6.00793	3.98682
-39.7017	-2.37757	4.05518
-39.6962	4.70705	4.12354
-39.6909	6.824564	4.19189
-39.68383	8.813385	4.26025
-39.6796	17.08466	4.32861
-39.6734	25.7149	4.39697
-39.6681	26.7547	4.465332
-39.6613	31.1017	4.53369
-39.6568	34.74654	4.60205
-39.6519	34.9205	4.67041
-39.6443	38.435	4.73877
-39.63895	42.364	4.80713
-39.6337	44.4509	4.87549
-39.6274	49.02401	4.94385
-39.623	55.3299	5.012207
-39.6172	65.9227	5.08057
-39.6115	65.72905	5.14893
-39.6053	70.5112	5.21729
-39.59848	74.1282	5.28564
-39.5944	75.3603	5.354
-39.58847	79.7323	5.42236
-39.5821	81.8562	5.49072
-39.5757	83.1712	5.559082
-39.5713	85.3613	5.62744
-39.5651	93.9306	5.6958
-39.5588	101.273	5.76416
-39.5525	105.723	5.83252
-39.5481	110.769	5.90088
-39.5435	112.509	5.96924
-39.5368	115.608	6.0376
-39.5313	120.4	6.105957
-39.5262	121.015	6.17432
-39.51973	122.74	6.24268
-39.5139	125.277	6.31104
-39.5089	135.523	6.37939
-39.5032	139.645	6.44775
-39.4964	143.5127	6.51611
-39.4914	151.088	6.58447
-39.486	154.484	6.652832
-39.4802	156.0715	6.72119
-39.4748	160.854	6.78955
-39.468	160.79	6.85791
-39.4623	161.324	6.92627
-39.4584	164.018	6.99463
-39.4527	171.973	7.06299
-39.4455	176.291	7.13135
-39.4407	179.596	7.199707
-39.4348	187.559	7.26807
-39.4295	191.618	7.33643
-39.4234	194.797	7.40479
-39.4166	198.974	7.47314
-39.4126	201.455	7.5415
-39.4066	200.506	7.60986
-39.4002	201.434	7.67822
-39.3944	210.6929	7.746582
-39.389	213.514	7.81494
-39.3827	217.537	7.8833
-39.3777	224.341	7.95166
-39.372	229.929	8.02002
-39.36599	232.969	8.08838
-39.3615	236.87	8.15674
-39.3539	240.234	8.2251
-39.3496	239.075	8.293457
-39.3436	239.667	8.36182
-39.3378	247.813	8.43018
-39.3322	250.1694	8.49854
-39.3271	254.177	8.56689
-39.3218	259.818	8.63525
-39.3143	266.757	8.70361
-39.3096	270.771	8.77197
-39.3024	275.596	8.840332
-39.298	279.43	8.90869
-39.2923	278.105	8.97705
-39.2863	279.166	9.04541
-39.2799	287.067	9.11377
-39.2756	288.008	9.18213
-39.27	289.865	9.25049
-39.2639	296.085	9.31885
-39.259	301.1886	9.387207
-39.2511	308.099	9.45557
-39.24659	313.116	9.52393
-39.2417	313.496	9.59229
-39.2346	315.809	9.66064
-39.2293	316.412	9.729
-39.22353	322.43	9.79736
-39.2179	325.2756	9.86572
-39.21344	326.383	9.934082
-39.2074	331.588	10.0024
-39.20145	335.8811	10.0708
-39.1946	342.966	10.13916
-39.1903	348.7124	10.20752
-39.18383	351.3165	10.2759
-39.1797	351.015	10.3442
-39.1728	356.56	10.4126
-39.16782	359.9248	10.481
-39.1616	359.673	10.5493
-39.1561	361.922	10.6177
-39.1494	368.2276	10.686
-39.1446	369.352	10.7544
-39.1381	377.462	10.8228
-39.1334	384.034	10.8911
-39.1261	386.222	10.9595
-39.1213	387.719	11.0278
-39.1166	392.484	11.0962
-39.1108	397.04	11.1646
-39.10368	395.524	11.23291
-39.0988	399.1	11.30127
-39.0937	402.759	11.3696
-39.0871	404.943	11.438
-39.0821	409.402	11.5063
-39.0758	417.854	11.5747
-39.0693	421.161	11.6431
-39.0649	420.998	11.7114
-39.0588	427.0593	11.7798
-39.0518	432.366	11.8481
-39.0471	430.874	11.9165
-39.042	431.774	11.9849
-39.0361	436.545	12.0532
-39.0301	437.261	12.1216
-39.0252	442.325	12.1899
-39.0199	448.798	12.2583
-39.0142	453.852	12.32666
-39.0071	454.295	12.39502
-39.0019	459.556	12.4634
-38.9963	465.79	12.5317
-38.9905	464.63	12.6001
-38.9845	464.767	12.6685
-38.9796	469.119	12.7368
-38.97448	468.527	12.8052
-38.9685	473.0947	12.8735
-38.9607	479.653	12.9419
-38.9553	481.73	13.0103
-38.9497	486.149	13.0786
-38.9448	490.867	13.147
-38.93985	495.121	13.2153
-38.9336	495.602	13.2837
-38.9276	497.49	13.3521
-38.9223	497.683	13.42041
-38.9158	497.961	13.48877
-38.909	502.633	13.5571
-38.9055	506.235	13.6255
-38.89922	508.923	13.6938
-38.8933	512.484	13.7622
-38.888	518.948	13.8306
-38.8823	522.924	13.8989
-38.8769	522.687	13.9673
-38.8703	527.027	14.0356
-38.865	526.703	14.104
-38.8593	527.357	14.1724
-38.8539	529.993	14.2407
-38.84771	531.829	14.3091
-38.8426	532.335	14.3774
-38.8366	534.9	14.4458
-38.8309	543.385	14.51416
-38.8252	547.624	14.58252
-38.8202	547.758	14.6509
-38.8146	550.649	14.7192
-38.80838	553.089	14.7876
-38.8024	550.859	14.856
-38.79604	551.651	14.9243
-38.7912	555.295	14.9927
-38.7856	553.336	15.061
-38.781	554.657	15.1294
-38.7745	563.1908	15.1978
-38.7681	566.629	15.2661
-38.7623	567.431	15.3345
-38.7571	571.009	15.4028
-38.7517	571.474	15.4712
-38.7453	569.438	15.5396
-38.7408	570.159	15.60791
-38.7346	570.517	15.67627
-38.7282	568.302	15.7446
-38.7226	569.349	15.813
-38.7167	577.65	15.8813
-38.7118	577.587	15.9497
-38.7053	579.138	16.0181
-38.7002	581.8736	16.0864
-38.69273	583.216	16.1548
-38.6883	582.248	16.2231
-38.68206	581.426	16.2915
-38.6767	580.628	16.3599
-38.6711	575.466	16.4282
-38.666	577.568	16.4966
-38.66	580.161	16.5649
-38.6541	582.222	16.6333
-38.6493	584.11	16.70166
-38.644	586.716	16.77002
-38.6369	585.873	16.8384
-38.63187	586.602	16.9067
-38.6253	586.456	16.9751
-38.6204	581.9054	17.0435
-38.6154	578.869	17.1118
-38.6085	578.0744	17.1802
-38.6032	580.475	17.2485
-38.59663	580.319	17.3169
-38.591	582.196	17.3853
-38.5874	584.57	17.4536
-38.58017	582.5387	17.522
-38.5747	584.576	17.5903
-38.5689	584.158	17.6587
-38.56316	580.887	17.7271
-38.5566	574.5097	17.79541
-38.5521	575.719	17.86377
-38.5473	576.344	17.9321
-38.5402	573.412	18.0005
-38.5343	575.764	18.0688
-38.53	578.969	18.1372
-38.5235	577.131	18.2056
-38.51683	580.936	18.2739
-38.5115	580.181	18.3423
-38.5067	576.548	18.4106
-38.5001	571.402	18.479
-38.4953	570.33	18.5474
-38.4887	571.8327	18.6157
-38.4825	569.668	18.6841
-38.4779	569.327	18.7524
-38.472	571.511	18.8208
-38.4666	572.229	18.88916
-38.46035	574.519	18.95752
[...]
-36.5166	526.73	42.2876
-36.51487	521.499	42.3071
-36.5126	524.57	42.32666
-36.5117	526.731	42.3462
-36.5097	516.752	42.3657
-36.5078	522.94	42.3853
-36.50737	524.827	42.4048
-36.504	518.876	42.4243
-36.5028	516.323	42.4438
-36.5018	521.722	42.4634
-36.4997	511.33	42.48291
-36.4931	-102.0253	42.5024
-36.4949	-29.3789	42.522
-36.4939	-44.5185	42.5415
-36.49044	-44.2488	42.561
-36.491	-37.3631	42.5806
-36.4886	-44.2191	42.6001
-36.487	-45.8678	42.6196
-36.4864	-43.7348	42.63916
-36.4852	-38.8369	42.6587
-36.4821	-44.7992	42.6782
-36.4818	-41.9223	42.6978
-36.4805	-42.9258	42.7173
-36.478	-43.7936	42.7368
-36.4761	-44.1152	42.7563
-36.4745	-39.6284	42.7759
-36.4736	-43.6878	42.79541
-36.4718	-46.777	42.8149
-36.4703	-40.7098	42.8345
-36.4682	-41.6053	42.854
-36.4676	-47.1838	42.8735
-36.465	-41.642	42.8931
-36.4637	-40.3116	42.9126
-36.4613	-45.9873	42.9321
-36.4614	-41.5835	42.95166
-36.4588	-41.8598	42.9712
-36.4569	-46.4636	42.9907
-36.4562	-44.0933	43.0103
-36.4537	-37.7623	43.0298
-36.4528	-47.5818	43.0493
-36.4512	-44.843	43.0688
-36.4485	-39.5841	43.0884
-36.4489	-42.3667	43.10791
-36.4463	-45.5007	43.1274
-36.445	-38.8511	43.147
-36.4427	-46.4736	43.1665
-36.4407	-44.79615	43.186
-36.4399	-40.7259	43.2056
-36.438	-42.4214	43.2251
-36.4365	-45.3055	43.2446
-36.4351	-40.70507	43.26416
-36.4323	-41.8776	43.2837
-36.4302	-44.4371	43.3032
-36.4292	-44.8365	43.3228
-36.4292	-39.7255	43.3423
-36.4265	-45.0683	43.3618
-36.4247	-44.602	43.3813
-36.4248	-42.8372	43.4009
-36.4221	-43.5188	43.42041
-36.41988	-46.0753	43.4399
-36.42	-39.4953	43.4595
-36.4168	-42.6647	43.479
-36.415	-48.8073	43.4985
-36.4133	-42.334	43.5181
-36.4128	-40.3623	43.5376
-36.4108	-45.2305	43.5571
-36.4081	-42.0185	43.57666
-36.4075	-39.1892	43.5962
-36.4058	-47.3456	43.6157
-36.403	-43.1454	43.6353
-36.4016	-40.4784	43.6548
-36.4001	-46.7517	43.6743
-36.39772	-45.7878	43.6938
-36.3969	-37.45887	43.7134
-36.3948	-45.6737	43.73291
-36.3939	-45.3159	43.7524
-36.3922	-40.5425	43.772
-36.3906	-42.1482	43.7915
-36.3891	-45.3514	43.811
-36.38784	-38.979	43.8306
-36.3853	-44.6569	43.8501
-36.3839	-43.7819	43.8696
-36.3833	-42.9098	43.88916
-36.3815	-38.2421	43.9087
-36.3796	-46.3117	43.9282
-36.3784	-42.387	43.9478
-36.37566	-41.783	43.9673
-36.3754	-42.5987	43.9868
-36.3725	-44.6802	44.0063
-36.37048	-40.4719	44.0259
-36.3702	-42.433	44.04541
-36.36842	-43.8113	44.0649
-36.3661	-41.7462	44.0845
-36.3647	-42.6204	44.104
-36.3631	-46.3173	44.1235
-36.36166	-40.4896	44.1431
-36.3605	-40.0453	44.1626
-36.3581	-47.1418	44.1821
-36.3572	-44.4793	44.20166
-36.3548	-39.5793	44.2212
-36.3538	-45.8095	44.2407
-36.352	-43.3527	44.2603
-36.3503	-38.4802	44.2798
-36.3488	-46.7059	44.2993
-36.3463	-43.75906	44.3188
-36.3455	-38.7976	44.3384
-36.3435	-43.9329	44.35791
-36.3416	-47.9299	44.3774
-36.3408	-38.82135	44.397
-36.3385	-44.8106	44.4165
-36.337	-45.631	44.436
-36.3355	-42.65815	44.4556
-36.3347	-41.2086	44.4751
-36.3327	-45.1435	44.4946
-36.3303	-41.0257	44.51416
-36.3279	-43.7708	44.5337
-36.32748	-45.1587	44.5532
-36.3254	-44.4905	44.5728
-36.3243	-37.2953	44.5923
-36.3226	-44.8172	44.6118
-36.3211	-44.6031	44.6313
-36.3198	-42.7842	44.6509
-36.3173	-42.2818	44.67041
-36.3165	-47.7472	44.6899
-36.3146	-41.4734	44.7095
-36.3118	-43.7366	44.729
-36.3114	-47.37989	44.7485
-36.3098	-42.25473	44.7681
-36.3087	-41.6693	44.7876
-36.3061	-48.1869	44.8071
-36.30479	-44.2775	44.82666
-36.3032	-39.1038	44.8462
-36.3017	-46.5248	44.8657
-36.2992	-45.2527	44.8853
-36.2974	-41.0187	44.9048
-36.2961	-45.5807	44.9243
-36.2954	-45.6613	44.9438
-36.2928	-38.0872	44.9634
-36.29208	-45.7562	44.98291
-36.2901	-45.7215	45.0024
-36.2895	-42.6051	45.0122

File: 0.254_solid_uprint_typei_090_r(1).dat
MTS793|BTW|ENU|1|2|.|/|:|1|0|0|A

Data Header:			0.254_solid_dimension_typei_090_r0			Time:	20.0225	s	4/15/2019 2:36:23 PM
Data Acquisition:	Timed
Station Name:	ft40.cfg
Test File Name:	monotonic_0.2540_typei_solid_090_dimension.tst
Displacement	Force	Running Time
mm	N	s
9.9717	-144.558	0.02734375
9.97326	-144.794	0.0957031
9.978405	-141.298	0.1640625
9.98408	-136.6	0.232422
9.9895	-132.626	0.300781
9.99506	-125.488	0.369141
10.0014	-117.607	0.4375
10.0075	-114.946	0.505859
10.0125	-114.466	0.574219
10.019	-109.158	0.642578
10.0245	-107.154	0.7109375
10.0294	-109.865	0.779297
10.0361	-108.0431	0.847656
10.0407	-104.093	0.916016
10.0474	-101.96	0.984375
10.0529	-93.816	1.05273
10.0583	-86.8763	1.12109
10.06288	-81.99353	1.18945
10.0702	-80.0091	1.25781
10.076	-73.9714	1.32617
10.0818	-70.7701	1.39453
10.08672	-69.7394	1.46289
10.09224	-71.5477	1.53125
10.0987	-69.9317	1.59961
10.1035	-66.479	1.66797
10.1099	-59.2588	1.73633
10.1152	-53.0194	1.80469
10.1213	-47.2954	1.87305
10.126	-42.5137	1.94141
10.1324	-36.0961	2.00977
10.1385	-32.87574	2.078125
10.1446	-31.3435	2.14648
10.1497	-31.2812	2.21484
10.15481	-31.5201	2.2832
10.1612	-31.3817	2.35156
10.1671	-24.7499	2.41992
10.1728	-18.3326	2.48828
10.1779	-13.2806	2.55664
10.1832	-8.13841	2.625
10.189	0.467422	2.69336
10.195	5.32844	2.76172
10.2012	6.63691	2.83008
10.2069	7.63064	2.89844
10.2129	9.77046	2.9668
10.21765	7.99708	3.03516
10.224	13.2121	3.10352
10.2286	18.86422	3.171875
10.23564	24.0318	3.24023
10.2399	26.9366	3.30859
10.2463	37.9559	3.37695
10.2521	46.1793	3.44531
10.2577	45.1068	3.51367
10.2632	48.5235	3.58203
10.26873	49.2921	3.65039
10.2765	48.8644	3.71875
10.2813	49.6928	3.78711
10.28658	56.4284	3.85547
10.2926	60.4911	3.92383
10.2977	62.0976	3.99219
10.3034	71.0686	4.06055
10.309	82.9085	4.12891
10.315	84.8557	4.19727
10.3211	87.80761	4.265625
10.326	91.5837	4.33398
10.3322	89.8487	4.40234
10.3372	91.0596	4.4707
10.3435	94.7535	4.53906
10.3486	97.6553	4.60742
10.3549	101.126	4.67578
10.3601	108.234	4.74414
10.3655	119.986	4.8125
10.3714	124.138	4.88086
10.3787	126.574	4.94922
10.3833	130.193	5.01758
10.3899	131.78	5.08594
10.3938	133.303	5.1543
10.4004	132.927	5.22266
10.4057	136.439	5.29102
10.41085	137.595	5.359375
10.4167	145.159	5.42773
10.42309	155.374	5.49609
10.42799	159.244	5.56445
10.4347	165.463	5.63281
10.44063	171.34	5.70117
10.4453	170.617	5.76953
10.4518	174.044	5.83789
10.4578	174.569	5.90625
10.4632	175.145	5.97461
10.4686	177.912	6.04297
10.4747	183.415	6.11133
10.481	191.968	6.17969
10.4853	197.547	6.24805
10.4916	203.905	6.31641
10.4976	211.167	6.38477
10.503	211.863	6.453125
10.5079	213.241	6.52148
10.5156	215.356	6.58984
10.5207	214.602	6.6582
10.5251	213.495	6.72656
10.53146	216.984	6.79492
10.5363	226.884	6.86328
10.5425	232.022	6.93164
10.548	238.933	7
10.55402	248.413	7.06836
10.5593	251.772	7.13672
10.5643	252.127	7.20508
10.5714	256.2	7.27344
10.5772	257.439	7.3418
10.5826	254.545	7.41016
10.5879	256.313	7.47852
10.5941	263.973	7.546875
10.5997	270.135	7.61523
10.6057	274.703	7.68359
10.6108	285.535	7.75195
10.6166	291.1127	7.82031
10.6215	293.734	7.88867
10.6283	295.815	7.95703
10.63349	298.201	8.02539
10.6396	295.007	8.09375
10.6464	292.993	8.16211
10.6513	298.68	8.23047
10.6561	307.587	8.29883
10.6625	310.277	8.36719
10.6682	319.514	8.43555
10.6727	327.0155	8.50391
10.6791	333.835	8.57227
10.685	336.5	8.640625
10.6909	338.8	8.70898
10.6963	336.354	8.77734
10.7018	333.857	8.8457
10.7068	336.051	8.91406
10.713	342.515	8.98242
10.7197	345.9834	9.05078
10.7259	354.509	9.11914
10.7298	363.125	9.1875
10.7371	368.681	9.25586
10.7422	376.163	9.32422
10.748	376.632	9.39258
10.7535	375.36	9.46094
10.759	373.317	9.5293
10.765	375.6918	9.59766
10.7712	378.987	9.66602
10.7759	380.247	9.734375
10.7816	389.345	9.80273
10.7885	399.1839	9.87109
10.7931	405.482	9.93945
10.7987	412.115	10.0078
10.8042	417.035	10.0762
10.8106	417.735	10.1445
10.8163	412.158	10.2129
10.8214	414.082	10.28125
10.8273	419.827	10.3496
10.8336	416.6033	10.418
10.83993	423.786	10.4863
10.8442	433.547	10.5547
10.8504	438.62	10.623
10.8561	446.981	10.6914
10.861	455.081	10.7598
10.8673	457.995	10.8281
10.8733	454.073	10.8965
10.8795	453.061	10.9648
10.8841	457.419	11.0332
10.8899	456.4642	11.1016
10.8964	457.562	11.1699
10.90048	466.5459	11.2383
10.9068	474.584	11.3066
10.9128	481.293	11.375
10.9195	489.849	11.4434
10.92347	495.363	11.5117
10.9304	493.725	11.5801
10.9361	492.606	11.6484
10.9419	496.0246	11.7168
10.9464	495.54	11.7852
10.9525	494.895	11.8535
10.9581	500.804	11.9219
10.9637	508.263	11.9902
10.9694	517.296	12.0586
10.9754	524.071	12.127
10.9806	532.392	12.1953
10.986	531.083	12.2637
10.993	531.397	12.332
10.9977	532.503	12.4004
11.0037	531.831	12.46875
11.0095	531.876	12.5371
11.0151	533.909	12.6055
11.021	540.964	12.6738
11.0263	546.25	12.7422
11.0322	558.547	12.8105
11.0376	563.7215	12.8789
11.0442	566.194	12.9473
11.0505	568.762	13.0156
11.0549	571.5011	13.084
11.061	569.473	13.1523
11.0672	569.607	13.2207
11.0722	571.002	13.2891
11.0767	574.14	13.3574
11.0826	579.648	13.4258
11.08913	589.636	13.4941
11.0951	597.339	13.5625
11.1015	601.334	13.6309
11.1064	602.956	13.6992
11.1123	608.453	13.7676
11.11764	607.319	13.8359
11.12285	604.467	13.9043
11.1294	605.648	13.9727
11.1341	609.1131	14.041
11.1408	611.45	14.1094
11.1456	619.534	14.1777
11.1508	629.5	14.2461
11.1583	633.876	14.3145
11.163	636.053	14.3828
11.16808	642.619	14.4512
11.1746	646.1358	14.5195
11.1805	641.788	14.5879
11.1856	640.855	14.65625
11.191	643.873	14.7246
11.1984	645.802	14.793
11.2043	650.623	14.8613
11.209	659.398	14.9297
11.2149	666.43	14.998
11.2206	670.215	15.0664
11.22541	673.807	15.1348
11.231	680.414	15.2031
11.2373	680.3714	15.2715
11.2439	678.239	15.3398
11.2483	677.803	15.4082
11.2531	678.924	15.4766
11.2595	683.176	15.5449
11.2661	689.138	15.6133
11.2702	696.284	15.6816
11.2772	701.768	15.75
11.2829	708.036	15.8184
11.2882	713.593	15.8867
11.2954	716.555	15.9551
11.3005	714.86	16.0234
11.3066	713.366	16.0918
11.312	711.526	16.1602
11.31647	715.221	16.2285
11.32202	721.1	16.2969
11.3286	725.047	16.3652
11.3341	731.631	16.4336
11.3392	737.545	16.502
11.3457	745.739	16.5703
11.3517	747.31	16.6387
11.3572	746.499	16.707
11.3622	746.403	16.7754
11.36843	746.823	16.84375
11.37396	746.459	16.9121
11.3792	750.648	16.9805
11.3855	757.648	17.0488
11.3909	758.9422	17.1172
11.3972	763.82	17.1855
11.4026	775.754	17.2539
11.409	780.203	17.3223
11.4146	779.94	17.3906
11.4197	780.974	17.459
11.42615	781.006	17.5273
11.4307	779.196	17.5957
11.43645	780.13	17.6641
11.4423	785.475	17.7324
11.4483	788.1181	17.8008
11.4541	794.267	17.8691
11.4599	800.8866	17.9375
11.4651	810.725	18.0059
11.4701	811.462	18.0742
11.4757	812.62	18.1426
11.4819	814.071	18.2109
11.48676	811.456	18.2793
11.4942	810.943	18.3477
11.4988	813.213	18.416
11.5046	816.365	18.4844
11.5112	818.138	18.5527
11.5162	826.195	18.6211
11.5223	836.312	18.6895
11.5279	841.286	18.7578
11.5329	842.032	18.8262
11.5388	842.939	18.8945
11.5452	843.083	18.9629
11.5501	841.857	19.03125
11.55718	841.754	19.0996
11.5615	843.879	19.168
11.5679	846.374	19.2363
11.5732	854.057	19.3047
11.5778	862.2865	19.373
11.584	865.707	19.4414
11.5893	871.218	19.5098
11.5968	872.309	19.5781
11.6016	872.131	19.6465
11.6075	872.096	19.7148
11.6123	871.776	19.7832
11.619	869.427	19.8516
11.6233	872.24	19.9199
11.6298	876.527	19.9883
[...]
12.72606	930.101	33.1523
12.7312	929.762	33.2207
12.7394	929.343	33.2891
12.7453	927.257	33.3574
12.7488	930.146	33.4258
12.756	934.514	33.4941
12.7611	935.61	33.5625
12.7669	935.684	33.6309
12.7725	939.7757	33.6992
12.7782	938.374	33.7676
12.7833	932.078	33.8359
12.7895	928.531	33.9043
12.7952	927.277	33.9727
12.8023	928.073	34.041
12.8072	928.422	34.1094
12.8135	931.849	34.1777
12.8187	933.845	34.2461
12.8243	933.683	34.3145
12.829	937.687	34.3828
12.8356	937.36	34.4512
12.8405	935.078	34.5195
12.8466	929.936	34.5879
12.8536	928.283	34.65625
12.8592	926.415	34.7246
12.8642	927.961	34.793
12.86974	929.552	34.8613
12.8742	928.383	34.9297
12.8807	931.709	34.998
12.887	935.549	35.0664
12.8923	937.802	35.1348
12.8984	934.073	35.2031
12.9033	933.392	35.2715
12.9099	930.299	35.3398
12.9148	924.669	35.4082
12.9217	925.507	35.4766
12.9267	928.8736	35.5449
12.9321	928.324	35.6133
12.9372	928.444	35.6816
12.94381	932.081	35.75
12.9494	937.777	35.8184
12.9545	935.331	35.8867
12.9602	934.213	35.9551
12.966	933.809	36.0234
12.9723	926.202	36.0918
12.9786	926.182	36.1602
12.9842	926.541	36.2285
12.99037	925.438	36.2969
12.9951	925.231	36.3652
13.0005	928.3786	36.4336
13.00705	935.805	36.502
13.01161	934.953	36.5703
13.0177	931.885	36.6387
13.0231	933.609	36.707
13.03	930.117	36.7754
13.0341	926.18	36.84375
13.0407	925.063	36.9121
13.0459	924.486	36.9805
13.0521	923.354	37.0488
13.0586	923.276	37.1172
13.0629	931.491	37.1855
13.0689	933.937	37.2539
13.0736	933.104	37.3223
13.0803	932.934	37.3906
13.086	930.206	37.459
13.0917	927.717	37.5273
13.0974	923.948	37.5957
13.1043	921.92	37.6641
13.1093	919.932	37.7324
13.1147	921.489	37.8008
13.1204	926.9845	37.8691
13.1254	929.998	37.9375
13.1318	931.323	38.0059
13.1372	931.901	38.0742
13.1427	929.1153	38.1426
13.1485	927.72	38.2109
13.1535	924.4729	38.2793
13.1606	920.8089	38.3477
13.1643	916.604	38.416
13.172	916.7	38.4844
13.1774	921.898	38.5527
13.18286	923.459	38.6211
13.1899	925.79	38.6895
13.1937	929.707	38.7578
13.2002	926.869	38.8262
13.2059	923.858	38.8945
13.2119	921.294	38.9629
13.2169	639.241	39.03125
13.2246	-51.6127	39.0996
13.2299	-51.2166	39.168
13.2353	-45.686	39.2363
13.2409	-41.8461	39.3047
13.2469	-41.8847	39.373
13.2517	-37.0892	39.4414
13.2577	-34.8076	39.5098
13.2634	-38.3352	39.5781
13.2687	-39.6127	39.6465
13.2746	-40.474	39.7148
13.2802	-46.0548	39.7832
13.2866	-51.79932	39.8516
13.2918	-48.9696	39.9199
13.297	-43.8047	39.9883
13.2989	-39.3854	40.0176

Data Header:			0.254_solid_dimension_typei_090_r0			Time:	40.4089	s	4/15/2019 2:36:43 PM
Data Acquisition:	Timed
Station Name:	ft40.cfg
Test File Name:	monotonic_0.2540_typei_solid_090_dimension.tst
Displacement	Force	Running Time
mm	N	s
13.3001	-43.7826	40.0273
13.3008	-47.2817	40.0371
13.3022	-47.3196	40.0469
13.3027	-44.5168	40.0566
13.3043	-36.8627	40.0664
13.3039	-36.8187	40.0762
13.3062	-40.8263	40.0859
13.30647	-45.2035	40.0957
13.3075	-47.4467	40.1055
13.3083	-41.4584	40.1152
13.30985	-39.7018	40.125
13.3098	-39.0357	40.1348
13.3094	-40.1208	40.1445
13.3113	-42.4838	40.1543
13.3122	-45.2513	40.1641
13.3124	-47.6411	40.1738
13.3133	-42.0553	40.1836
13.3136	-35.7993	40.1934
13.3154	-39.8676	40.2031
13.3154	-40.3361	40.2129
13.31669	-47.8194	40.2227
13.3188	-43.38406	40.2324
13.3185	-41.8374	40.2422
13.3191	-42.56736	40.252
13.3205	-38.3733	40.2617
13.3198	-38.3424	40.2715
13.3223	-43.92	40.28125
13.323	-47.752	40.291
13.323	-48.04	40.3008
13.32372	-39.7799	40.3105
13.3254	-36.5693	40.3203
13.3259	-37.86293	40.3301
13.32603	-43.2183	40.3398
13.327	-48.3448	40.3496
13.3279	-47.02235	40.3594
13.3295	-45.48402	40.3691
13.3289	-38.7456	40.3789
13.331	-35.0413	40.3887
13.3322	-40.8393	40.3984