Folder: Stress_Strain_Analysis_Tools/data/processed_data_files/tensile (part 22)

File: 0.254_hd_uprint_typeiv_090_r(5).dat
MTS793|BTW|ENU|1|2|.|/|:|1|0|0|A

Data Header:			0.254_hd_uprint_typeiv_090_r0			Time:	20.0183	s	4/13/2019 11:06:35 PM
Data Acquisition:	Timed
Station Name:	ft40.cfg
Test File Name:	monotonic_0.2540_typeiv_solid_4545_uprint.tst
Displacement	Force	Running Time
mm	N	s
-40.0435	-216.333	0.0227051
-40.0424	-219.517	0.0910645
-40.0354	-212.076	0.159424
-40.0303	-206.163	0.2277832
-40.0257	-205.778	0.296143
-40.0186	-203.823	0.364502
-40.014	-199.165	0.432861
-40.0074	-201.067	0.5012207
-40.0025	-197.832	0.56958
-39.9963	-192.047	0.637939
-39.9909	-188.334	0.706299
-39.9857	-187.869	0.7746582
-39.9795	-178.657	0.843018
-39.9736	-174.709	0.911377
-39.9694	-173.328	0.979736
-39.96273	-169.545	1.0481
-39.9568	-167.211	1.11646
-39.951	-164.068	1.18481
-39.9456	-164.119	1.25317
-39.94	-158.1235	1.32153
-39.9338	-161.419	1.38989
-39.92794	-157.205	1.458252
-39.923	-146.967	1.52661
-39.9163	-143.054	1.59497
-39.9117	-139.755	1.66333
-39.9056	-135.774	1.73169
-39.8998	-132.979	1.80005
-39.895	-133.209	1.86841
-39.8891	-130.148	1.93677
-39.8817	-128.814	2.005127
-39.8771	-128.784	2.07349
-39.8706	-125.194	2.14185
-39.8652	-114.9989	2.21021
-39.8588	-110.601	2.27856
-39.8549	-107.212	2.34692
-39.8483	-103.418	2.41528
-39.8438	-99.508	2.48364
-39.8379	-97.5266	2.552002
-39.8312	-97.1472	2.62036
-39.8264	-96.2136	2.68872
-39.8209	-96.1886	2.75708
-39.8148	-90.4479	2.82544
-39.8084	-83.6159	2.8938
-39.8035	-80.35276	2.96216
-39.7972	-75.7515	3.03052
-39.793	-70.1252	3.098877
-39.7861	-67.2298	3.16724
-39.7806	-63.8539	3.2356
-39.7749	-64.351	3.30396
-39.7694	-64.2632	3.37231
-39.7624	-62.1755	3.44067
-39.7569	-58.2585	3.50903
-39.7511	-54.5744	3.57739
-39.7453	-51.111	3.645752
-39.7398	-44.0086	3.71411
-39.7352	-38.9742	3.78247
-39.7295	-35.0576	3.85083
-39.7238	-31.9222	3.91919
-39.7178	-30.3655	3.98755
-39.712	-31.0537	4.05591
-39.7057	-30.9806	4.12427
-39.7009	-25.0987	4.192627
-39.6944	-22.35305	4.26099
-39.6891	-18.3008	4.32935
-39.6833	-12.9639	4.39771
-39.6773	-8.96957	4.46606
-39.6726	-3.14746	4.53442
-39.6667	2.36491	4.60278
-39.6607	3.10636	4.67114
-39.6552	1.8359	4.739502
-39.6488	4.32094	4.80786
-39.6435	8.021492	4.87622
-39.6368	8.08148	4.94458
-39.6316	12.3669	5.01294
-39.6259	18.77	5.0813
-39.6209	21.4844	5.14966
-39.61536	28.4787	5.21802
-39.6097	33.80761	5.286377
-39.6042	32.531	5.35474
-39.5984	34.7218	5.4231
-39.5922	38.3395	5.49146
-39.5855	40.7556	5.55981
-39.58131	39.3489	5.62817
-39.5742	45.3008	5.69653
-39.569	49.5752	5.76489
-39.5634	53.9427	5.833252
-39.5582	58.79324	5.90161
-39.5528	65.3977	5.96997
-39.5469	64.147	6.03833
-39.5407	67.0749	6.10669
-39.5368	74.0584	6.17505
-39.5308	74.4552	6.24341
-39.5246	73.3144	6.31177
-39.5179	78.0086	6.380127
-39.5117	80.3013	6.44849
-39.507	83.1442	6.51685
-39.5009	90.0697	6.58521
-39.49659	95.875	6.65356
-39.4886	96.3982	6.72192
-39.4837	99.0587	6.79028
-39.4784	107.659	6.85864
-39.4725	107.637	6.927002
-39.4662	106.282	6.99536
-39.4618	111.285	7.06372
-39.4548	111.787	7.13208
-39.4488	115.834	7.20044
-39.4445	121.178	7.2688
-39.4384	126.937	7.33716
-39.4328	125.49	7.40552
-39.4262	130.544	7.473877
-39.4205	138.032	7.54224
-39.41539	137.959	7.6106
-39.4099	139.661	7.67896
-39.4049	142.9	7.74731
-39.39994	143.764	7.81567
-39.3935	145.414	7.88403
-39.3873	151.061	7.95239
-39.3817	153.345	8.020752
-39.3763	155.825	8.08911
-39.3704	163.842	8.15747
-39.3644	168.527	8.22583
-39.3579	169.404	8.29419
-39.3529	172.456	8.36255
-39.3461	172.982	8.43091
-39.3424	175.506	8.49927
-39.3362	175.422	8.567627
-39.3301	180.036	8.63599
-39.3243	180.484	8.70435
-39.3191	184.349	8.77271
-39.31316	194.451	8.84106
-39.3077	197.784	8.90942
-39.3018	200.292	8.97778
-39.2956	204.065	9.04614
-39.29018	205.5764	9.114502
-39.2853	207.7625	9.18286
-39.27948	206.469	9.25122
-39.2736	208.705	9.31958
-39.2676	209.395	9.38794
-39.2627	213.993	9.4563
-39.2563	223.735	9.52466
-39.24984	225.106	9.59302
-39.2451	229.043	9.661377
-39.2383	232.784	9.72974
-39.2332	235.567	9.7981
-39.2281	237.08	9.86646
-39.2218	238.058	9.93481
-39.2163	236.5901	10.0032
-39.2107	238.253	10.0715
-39.2045	244.081	10.1399
-39.2006	249.787	10.2083
-39.1929	254.309	10.2766
-39.18726	259.485	10.345
-39.1831	261.382	10.41333
-39.1761	264.286	10.4817
-39.1712	268.562	10.55
-39.1651	266.86	10.6184
-39.15926	266.46	10.6868
-39.1538	267.797	10.7551
-39.1485	273.872	10.8235
-39.1433	276.171	10.8918
-39.1354	281.807	10.9602
-39.1321	286.567	11.0286
-39.1246	289.865	11.0969
-39.12	294.394	11.1653
-39.113	299.0946	11.2336
-39.1079	295.473	11.302
-39.1028	295.885	11.3704
-39.0978	296.97	11.4387
-39.092	301.9248	11.50708
-39.086	304.071	11.5754
-39.08	308.323	11.6438
-39.0738	313.122	11.7122
-39.0675	315.611	11.7805
-39.0621	322.481	11.8489
-39.0568	326.044	11.9172
-39.0515	323.527	11.9856
-39.0468	321.3569	12.054
-39.04026	325.481	12.1223
-39.0343	327.512	12.1907
-39.0284	327.1431	12.259
-39.0225	331.9693	12.3274
-39.0161	336.117	12.3958
-39.0116	339.902	12.4641
-39.0069	345.5376	12.5325
-39	348.155	12.60083
-38.9936	347.061	12.6692
-38.9881	348.037	12.7375
-38.9824	352.633	12.8059
-38.9778	351.717	12.8743
-38.9711	352.228	12.9426
-38.9661	356.569	13.011
-38.9599	357.614	13.0793
-38.9544	362.233	13.1477
-38.94915	367.177	13.2161
-38.9431	371.023	13.2844
-38.938	369.186	13.3528
-38.9304	371.929	13.4211
-38.9245	376.8446	13.4895
-38.9199	375.41	13.5579
-38.91407	374.751	13.6262
-38.9088	377.199	13.69458
-38.90202	378.673	13.7629
-38.8973	382.698	13.8313
-38.892	387.5528	13.8997
-38.8868	388.786	13.968
-38.8799	389.14	14.0364
-38.8752	396.524	14.1047
-38.8685	397.638	14.1731
-38.8634	394.82	14.2415
-38.8584	394.468	14.3098
-38.8513	397.822	14.3782
-38.8465	395.785	14.4465
-38.8404	399.408	14.5149
-38.8342	404.468	14.5833
-38.8289	404.4053	14.6516
-38.8236	405.624	14.72
-38.8172	414.922	14.78833
-38.8123	412.647	14.8567
-38.807	411.352	14.925
-38.7998	411.441	14.9934
-38.7967	411.583	15.0618
-38.7889	411.118	15.1301
-38.7831	413.374	15.1985
-38.7782	416.511	15.2668
-38.7719	417.264	15.3352
-38.7662	416.544	15.4036
-38.7611	425.0137	15.4719
-38.75491	426.377	15.5403
-38.7501	424.279	15.6086
-38.7421	425.648	15.677
-38.738	424.525	15.7454
-38.7325	422.616	15.8137
-38.7272	422.97	15.88208
-38.72113	422.142	15.9504
-38.7144	422.231	16.0188
-38.7094	426.413	16.0872
-38.7039	430.751	16.1555
-38.6977	431.374	16.2239
-38.6924	432.15	16.2922
-38.6866	433.429	16.3606
-38.6813	430.723	16.429
-38.6756	430.852	16.4973
-38.6701	428.54	16.5657
-38.6637	426.496	16.634
-38.6589	427.031	16.7024
-38.6522	429.9057	16.7708
-38.6467	432.624	16.8391
-38.641	434.867	16.9075
-38.636	436.397	16.97583
-38.6287	434.262	17.0442
-38.6237	436.947	17.1125
-38.6187	434.674	17.1809
-38.6108	431.161	17.2493
-38.6079	427.691	17.3176
-38.6009	427.8638	17.386
-38.5964	430.58	17.4543
-38.5904	431.497	17.5227
-38.5839	435.213	17.5911
-38.5787	437.3349	17.6594
-38.5727	435.284	17.7278
-38.567	437.509	17.7961
-38.5628	435.974	17.8645
-38.5559	430.757	17.9329
-38.5505	426.524	18.0012
-38.54472	428.267	18.06958
-38.539	428.768	18.1379
-38.5328	428.855	18.2063
-38.5279	431.78	18.2747
-38.5207	433.824	18.343
-38.5173	433.733	18.4114
-38.5097	436.134	18.4797
-38.5045	433.325	18.5481
-38.49892	428.709	18.6165
-38.4927	425.137	18.6848
-38.4874	426.56	18.7532
-38.4813	424.043	18.8215
-38.4757	424.506	18.8899
-38.4704	428.142	18.9583
-38.4649	428.57	19.0266
[...]
-37.9416	417.548	25.2961
-37.9384	417.766	25.345
-37.9335	412.621	25.3938
-37.9298	410.274	25.4426
-37.9265	415.7189	25.4915
-37.9215	419.094	25.5403
-37.9172	415.535	25.5891
-37.9144	409.285	25.6379
-37.9096	411.961	25.6868
-37.9056	415.691	25.7356
-37.9015	417.548	25.7844
-37.8959	411.026	25.8333
-37.89513	405.214	25.88208
-37.8895	408.56	25.9309
-37.8846	415.062	25.9797
-37.8809	416.41	26.0286
-37.8772	412.642	26.0774
-37.87273	412.762	26.1262
-37.8684	415.714	26.175
-37.8645	416.644	26.2239
-37.86108	414.006	26.2727
-37.8562	410.89	26.3215
-37.8532	410.723	26.3704
-37.8499	416.885	26.4192
-37.8446	415.174	26.468
-37.8407	410.633	26.5168
-37.8351	406.772	26.5657
-37.8328	411.398	26.6145
-37.82819	414.325	26.66333
-37.8244	414.221	26.7122
-37.82003	410.194	26.761
-37.8163	412.786	26.8098
-37.8113	416.743	26.8586
-37.8074	415.426	26.9075
-37.8044	412.154	26.9563
-37.799	410.177	27.0051
-37.7955	412.358	27.054
-37.792	414.74	27.1028
-37.7876	412.137	27.1516
-37.78381	409.659	27.2004
-37.7793	408.427	27.2493
-37.7763	410.772	27.2981
-37.7711	411.715	27.3469
-37.76664	410.997	27.3958
-37.7627	411.082	27.44458
-37.7591	414.848	27.4934
-37.754	417.229	27.5422
-37.7508	413.744	27.5911
-37.7473	408.486	27.6399
-37.7428	409.284	27.6887
-37.739	414.662	27.7375
-37.7338	412.131	27.7864
-37.7308	410.152	27.8352
-37.7258	408.813	27.884
-37.7229	410.665	27.9329
-37.7191	411.674	27.9817
-37.71381	411.08	28.0305
-37.7097	406.523	28.0793
-37.7062	409.981	28.1282
-37.7033	415.988	28.177
-37.6985	415.3576	28.22583
-37.6935	412.442	28.2747
-37.6896	407.425	28.3235
-37.6859	411.604	28.3723
-37.6809	414.297	28.4211
-37.6782	412.3483	28.47
-37.6737	407.345	28.5188
-37.6697	406.62	28.5676
-37.6657	411.956	28.6165
-37.6618	412.004	28.6653
-37.6573	406.704	28.7141
-37.6528	403.723	28.7629
-37.6487	407.564	28.8118
-37.6448	415.363	28.8606
-37.6403	414.898	28.9094
-37.6377	409.299	28.9583
-37.6327	406.647	29.00708
-37.63	409.494	29.0559
-37.6247	414.357	29.1047
-37.6206	410.552	29.1536
-37.6159	404.403	29.2024
-37.6128	405.728	29.2512
-37.608	411.304	29.3
-37.604	410.362	29.3489
-37.60117	404.9343	29.3977
-37.5977	400.163	29.4465
-37.5915	406.8356	29.4954
-37.5885	413.198	29.5442
-37.5839	412.178	29.593
-37.5802	407.136	29.6418
-37.5753	405.864	29.6907
-37.571	408.665	29.7395
-37.5678	411.677	29.78833
-37.5624	407.1037	29.8372
-37.5592	401.896	29.886
-37.5558	404.131	29.9348
-37.5516	408.517	29.9836
-37.5482	410.173	30.0325
-37.5426	404.383	30.0813
-37.5392	400.47	30.1301
-37.5357	404.538	30.179
-37.53159	410.918	30.2278
-37.5267	408.229	30.2766
-37.5224	404.12	30.3254
-37.519	402.663	30.3743
-37.5146	407.082	30.4231
-37.5119	407.452	30.4719
-37.506	404.214	30.5208
-37.5021	400.195	30.56958
-37.4983	403.899	30.6184
-37.4937	406.724	30.6672
-37.49094	405.496	30.7161
-37.486	399.542	30.7649
-37.4829	396.206	30.8137
-37.4785	395.989	30.8625
-37.4715	-33.6178	30.9114
-37.46909	-41.3927	30.9602
-37.4662	-43.6611	31.009
-37.4617	-41.34	31.0579
-37.4561	-38.9809	31.1067
-37.4528	-41.9299	31.1555
-37.44981	-45.4238	31.2043
-37.4459	-46.1175	31.2532
-37.4416	-43.0222	31.302
-37.4375	-39.7998	31.35083
-37.4329	-40.71339	31.3997
-37.4294	-44.1993	31.4485
-37.4243	-46.2083	31.4973
-37.4218	-42.4931	31.5461
-37.417	-42.9266	31.595
-37.4131	-46.3277	31.6438
-37.4093	-45.008	31.6926
-37.40398	-41.2778	31.7415
-37.4014	-39.4445	31.7903
-37.3968	-41.1866	31.8391
-37.393	-46.2403	31.8879
-37.3869	-45.7777	31.9368
-37.3847	-41.2166	31.9856
-37.3798	-39.2392	32.0344
-37.3752	-45.3005	32.0833
-37.3721	-44.7667	32.13208
-37.3678	-40.8018	32.1809
-37.364	-39.7837	32.2297
-37.3599	-45.2064	32.2786
-37.3591	-40.3633	32.28833

File: 0.254_hd_uprint_typeiv_090_r(6).dat
MTS793|BTW|ENU|1|2|.|/|:|1|0|0|A

Data Header:			0.254_hd_uprint_typeiv_090_r0			Time:	20.0181	s	4/13/2019 11:09:34 PM
Data Acquisition:	Timed
Station Name:	ft40.cfg
Test File Name:	monotonic_0.2540_typeiv_solid_4545_uprint.tst
Displacement	Force	Running Time
mm	N	s
-40.0436	-187.638	0.0229492
-40.0426	-182.191	0.0913086
-40.0351	-180.428	0.159668
-40.0302	-179.079	0.228027
-40.0249	-174.1555	0.296387
-40.0192	-173.367	0.364746
-40.0142	-171.955	0.433105
-40.0074	-168.463	0.501465
-40.0016	-164.458	0.569824
-39.997	-163.662	0.638184
-39.9914	-158.621	0.706543
-39.9849	-151.315	0.774902
-39.9795	-148.229	0.843262
-39.9735	-144.859	0.911621
-39.968	-141.4987	0.97998
-39.9626	-140.056	1.04834
-39.9564	-137.433	1.1167
-39.9504	-133.325	1.18506
-39.9457	-133.509	1.253418
-39.939	-133.317	1.32178
-39.933	-127.279	1.39014
-39.9287	-119.879	1.4585
-39.92234	-117.099	1.52686
-39.9166	-113.915	1.59521
-39.9116	-107.533	1.66357
-39.9054	-106.256	1.73193
-39.8992	-104.884	1.800293
-39.8939	-100.317	1.86865
-39.8876	-100.7964	1.93701
-39.8829	-101.024	2.00537
-39.877	-94.3504	2.07373
-39.8714	-86.8245	2.14209
-39.8648	-86.9764	2.21045
-39.86	-80.4173	2.27881
-39.854	-74.5344	2.347168
-39.8486	-76.0925	2.41553
-39.843	-71.1241	2.48389
-39.83646	-67.3634	2.55225
-39.832	-67.2742	2.62061
-39.826	-69.29158	2.68896
-39.8201	-62.9169	2.75732
-39.8144	-57.4846	2.82568
-39.8084	-53.49234	2.894043
-39.8019	-48.8705	2.9624
-39.7971	-44.0238	3.03076
-39.7913	-40.6395	3.09912
-39.7863	-37.1753	3.16748
-39.7804	-35.2495	3.23584
-39.77433	-36.6505	3.3042
-39.7693	-36.0112	3.37256
-39.7634	-28.6728	3.440918
-39.7573	-26.63567	3.50928
-39.753	-24.568	3.57764
-39.7461	-18.2216	3.646
-39.7406	-13.8158	3.71436
-39.7349	-8.923068	3.78271
-39.7282	-4.25468	3.85107
-39.7233	-2.779846	3.91943
-39.7172	-3.36256	3.987793
-39.7122	-2.19091	4.05615
-39.7062	2.61911	4.12451
-39.6997	4.85359	4.19287
-39.6941	7.557755	4.26123
-39.6886	13.1068	4.32959
-39.6832	17.5605	4.39795
-39.6779	24.95788	4.46631
-39.6715	28.7014	4.534668
-39.6665	30.3426	4.60303
-39.6604	30.512	4.67139
-39.6534	31.9457	4.73975
-39.6491	34.8377	4.80811
-39.644	35.91209	4.87646
-39.6383	40.9692	4.94482
-39.6316	43.4554	5.01318
-39.6265	47.9966	5.081543
-39.6202	56.1941	5.1499
-39.6143	60.7725	5.21826
-39.6078	61.0146	5.28662
-39.6023	62.3615	5.35498
-39.5978	67.2385	5.42334
-39.592	67.9091	5.4917
-39.5871	67.9535	5.56006
-39.5792	71.64653	5.628418
-39.5754	75.7899	5.69678
-39.5698	80.4711	5.76514
-39.565	85.4657	5.8335
-39.5575	91.8635	5.90186
-39.5516	91.6796	5.97021
-39.5467	95.5014	6.03857
-39.5407	99.86	6.10693
-39.53495	100.293	6.175293
-39.5288	100.969	6.24365
-39.5223	103.836	6.31201
-39.5177	106.051	6.38037
-39.5121	110.022	6.44873
-39.507	116.4631	6.51709
-39.5005	121.074	6.58545
-39.4957	122.594	6.65381
-39.4895	126.92	6.722168
-39.4834	132.617	6.79053
-39.4782	132.754	6.85889
-39.4723	132.792	6.92725
-39.4655	136.982	6.99561
-39.4616	136.955	7.06396
-39.456	141.887	7.13232
-39.4498	147.981	7.20068
-39.4437	150.779	7.269043
-39.4381	151.65	7.3374
-39.4328	158.063	7.40576
-39.4267	164.716	7.47412
-39.4209	163.582	7.54248
-39.41539	165.528	7.61084
-39.4112	167.762	7.6792
-39.4035	167.551	7.74756
-39.3979	172.171	7.815918
-39.3929	177.343	7.88428
-39.3875	179.761	7.95264
-39.38084	180.1469	8.021
-39.3764	189.678	8.08936
-39.3698	192.812	8.15771
-39.3644	194.763	8.22607
-39.3583	194.908	8.29443
-39.3528	199.81	8.362793
-39.3471	199.23	8.43115
-39.3413	202.745	8.49951
-39.3365	207.023	8.56787
-39.3297	208.019	8.63623
-39.3252	208.321	8.70459
-39.3182	217.526	8.77295
-39.3129	223.214	8.84131
-39.3071	223.71	8.909668
-39.3012	227.448	8.97803
-39.2963	228.711	9.04639
-39.2894	229.763	9.11475
-39.2853	231.6955	9.18311
-39.2793	234.001	9.25146
-39.2738	235.311	9.31982
-39.2661	237.731	9.38818
-39.2622	245.725	9.456543
-39.256	249.365	9.5249
-39.2501	252.855	9.59326
-39.2432	256.6752	9.66162
-39.2393	259.487	9.72998
-39.2337	260.436	9.79834
-39.2276	262.09	9.8667
-39.2212	264.058	9.93506
-39.21566	262.092	10.0034
-39.2106	265.45	10.0718
-39.2049	274.2356	10.1401
-39.1995	277.508	10.2085
-39.1934	281.782	10.2769
-39.1882	284.09	10.3452
-39.1824	288.833	10.4136
-39.1769	291.507	10.4819
-39.17128	291.486	10.5503
-39.16433	291.95	10.6187
-39.15958	291.5769	10.687
-39.1534	294.847	10.7554
-39.149	298.212	10.82373
-39.1423	301.461	10.89209
-39.1363	307.917	10.9604
-39.1315	311.69	11.0288
-39.1244	315.195	11.0972
-39.12	318.787	11.1655
-39.1142	320.453	11.2339
-39.1073	318.423	11.3022
-39.1026	318.792	11.3706
-39.09795	321.977	11.439
-39.091	324.697	11.5073
-39.0857	327.223	11.5757
-39.0796	331.734	11.644
-39.0741	336.313	11.7124
-39.0677	340.2883	11.7808
-39.0627	346.564	11.8491
-39.0566	347.278	11.91748
-39.0514	343.988	11.98584
-39.0449	346.451	12.0542
-39.0412	348.904	12.1226
-39.0341	349.105	12.1909
-39.029	351.9339	12.2593
-39.0223	357.034	12.3276
-39.0169	359.131	12.396
-39.0116	365.465	12.4644
-39.0061	370.236	12.5327
-39	371.24	12.6011
-38.99387	367.905	12.6694
-38.9883	370.606	12.7378
-38.9849	373.5394	12.8062
-38.9779	373.214	12.8745
-38.9722	372.962	12.9429
-38.9653	378.692	13.01123
-38.9596	381.374	13.07959
-38.9533	385.662	13.1479
-38.9495	391.28	13.2163
-38.9424	393.462	13.2847
-38.9361	390.142	13.353
-38.9316	393.195	13.4214
-38.9262	396.255	13.4897
-38.92099	393.982	13.5581
-38.9144	393.746	13.6265
-38.9106	397.988	13.6948
-38.9039	398.866	13.7632
-38.8967	404.168	13.8315
-38.8922	409.341	13.8999
-38.8867	410.368	13.9683
-38.88031	408.459	14.0366
-38.87384	412.623	14.10498
-38.8693	415.703	14.17334
-38.8625	411.253	14.2417
-38.8578	411.871	14.3101
-38.8521	413.9902	14.3784
-38.8465	412.948	14.4468
-38.8406	417.308	14.5151
-38.83506	422.643	14.5835
-38.82909	421.292	14.6519
-38.8221	422.123	14.7202
-38.8179	427.496	14.7886
-38.812	427.396	14.8569
-38.807	423.589	14.9253
-38.8003	424.661	14.9937
-38.7933	424.087	15.062
-38.7897	424.909	15.1304
-38.7841	426.189	15.19873
-38.7771	431.139	15.26709
-38.7725	430.764	15.3354
-38.7656	431.833	15.4038
-38.7611	433.732	15.4722
-38.7547	434.4368	15.5405
-38.7502	431.836	15.6089
-38.7448	431.357	15.6772
-38.73719	429.904	15.7456
-38.7324	431.124	15.814
-38.7271	432.721	15.8823
-38.7208	433.629	15.9507
-38.7155	432.635	16.019
-38.70911	434.814	16.0874
-38.7049	438.554	16.1558
-38.69754	437.705	16.2241
-38.6922	436.926	16.29248
-38.6872	434.84	16.36084
-38.6808	431.337	16.4292
-38.67416	433.197	16.4976
-38.6692	432.8147	16.5659
-38.6638	432.3139	16.6343
-38.6587	430.886	16.7026
-38.652	434.548	16.771
-38.648	436.965	16.8394
-38.6412	436.9541	16.9077
-38.6352	437.812	16.9761
-38.63065	436.099	17.0444
-38.624	433.736	17.1128
-38.619	435.04	17.1812
-38.6128	430.983	17.2495
-38.6078	428.71	17.3179
-38.6013	428.559	17.38623
-38.5963	433.777	17.45459
-38.5903	432.827	17.5229
-38.5844	433.293	17.5913
-38.5788	434.528	17.6597
-38.5734	432.6203	17.728
-38.5676	430.655	17.7964
-38.5616	430.916	17.8647
-38.55555	428.827	17.9331
-38.54982	423.256	18.0015
-38.5438	422.779	18.0698
-38.5388	427.21	18.1382
-38.5322	425.925	18.2065
-38.5275	428.44	18.2749
-38.521	431.087	18.3433
-38.5158	429.727	18.4116
-38.5097	428.481	18.47998
-38.5052	426.972	18.54834
-38.4986	425.764	18.6167
-38.4932	419.782	18.6851
-38.4874	418.233	18.7534
-38.4818	423.062	18.8218
-38.4761	423.637	18.8901
-38.4703	422.649	18.9585
-38.4648	426.647	19.0269
[...]
-37.7036	412.92	28.1577
-37.6994	413.9743	28.2261
-37.6914	410.77	28.2944
-37.6878	409.419	28.3628
-37.68103	408.657	28.4312
-37.6756	406.684	28.4995
-37.6704	402.564	28.5679
-37.6641	405.041	28.63623
-37.6584	409.6	28.70459
-37.6522	410.069	28.7729
-37.6464	410.738	28.8413
-37.6413	412.988	28.9097
-37.635	412.707	28.978
-37.6301	411.347	29.0464
-37.6235	409.691	29.1147
-37.6184	406.53	29.1831
-37.6132	403.946	29.2515
-37.6071	405.992	29.3198
-37.6021	407.522	29.3882
-37.5946	407.585	29.4565
-37.589	410.647	29.5249
-37.5838	412.213	29.5933
-37.5785	413.756	29.6616
-37.5733	412.5419	29.72998
-37.56776	408.951	29.79834
-37.5607	405.467	29.8667
-37.5556	403.99	29.9351
-37.5494	406.055	30.0034
-37.54491	403.972	30.0718
-37.5378	406.729	30.1401
-37.5322	408.858	30.2085
-37.5276	409.5686	30.2769
-37.5224	413.819	30.3452
-37.515	413.996	30.4136
-37.5104	411.707	30.4819
-37.504	406.168	30.5503
-37.4993	406.481	30.6187
-37.4921	406.731	30.687
-37.4873	402.643	30.7554
-37.4813	405.016	30.82373
-37.4759	407.967	30.89209
-37.4708	407.716	30.9604
-37.46442	412.0571	31.0288
-37.4589	413.34	31.0972
-37.453	410.161	31.1655
-37.4482	405.915	31.2339
-37.4417	406.512	31.3022
-37.4355	405.489	31.3706
-37.4313	402.152	31.439
-37.4245	404.762	31.5073
-37.4198	406.432	31.5757
-37.4122	404.213	31.644
-37.407	409.778	31.7124
-37.4012	412.365	31.7808
-37.3957	408.8428	31.8491
-37.3901	406.168	31.91748
-37.3849	408.657	31.98584
-37.3795	406.2258	32.0542
-37.3738	401.841	32.1226
-37.3681	403.154	32.1909
-37.36145	404.733	32.2593
-37.3578	404.325	32.3276
-37.3507	407.005	32.396
-37.3451	411.787	32.4644
-37.3391	408.334	32.5327
-37.3349	406.843	32.6011
-37.3274	410.697	32.6694
-37.322	406.23	32.7378
-37.3165	401.173	32.8062
-37.3099	404.175	32.8745
-37.30431	401.315	32.9429
-37.2993	401.8999	33.01123
-37.29306	407.388	33.07959
-37.2871	409.344	33.1479
-37.2833	405.364	33.2163
-37.2767	406.568	33.2847
-37.2716	410.896	33.353
-37.2639	408.685	33.4214
-37.2592	401.763	33.4897
-37.253	403.1008	33.5581
-37.2483	401.253	33.6265
-37.2417	402.401	33.6948
-37.2363	402.553	33.7632
-37.2317	403.33	33.8315
-37.2249	403.618	33.8999
-37.2187	406.672	33.9683
-37.21339	409.9277	34.0366
-37.208	406.614	34.10498
-37.2015	403.794	34.17334
-37.1956	403.101	34.2417
-37.1902	400.701	34.3101
-37.1853	400.926	34.3784
-37.1794	402.179	34.4468
-37.1745	403.097	34.5151
-37.1679	401.271	34.5835
-37.1631	404.46	34.6519
-37.1575	408.76	34.7202
-37.1516	406.716	34.7886
-37.1456	405.775	34.8569
-37.139	403.702	34.9253
-37.1326	400.827	34.9937
-37.1284	399.069	35.062
-37.1232	400.957	35.1304
-37.1174	397.64	35.19873
-37.1105	398.531	35.26709
-37.106	402.533	35.3354
-37.1001	404.755	35.4038
-37.0942	402.64	35.4722
-37.0887	404.563	35.5405
-37.0813	400.582	35.6089
-37.0772	400.209	35.6772
-37.0717	398.221	35.7456
-37.0655	393.586	35.814
-37.0594	391.186	35.8823
-37.05405	389.971	35.9507
-37.0489	339.209	36.019
-37.0419	-39.74366	36.0874
-37.0359	-38.0393	36.1558
-37.0313	-39.6977	36.2241
-37.0246	-43.3238	36.29248
-37.0197	-41.522	36.36084
-37.0137	-41.8472	36.4292
-37.00845	-45.3354	36.4976
-37.0036	-49.4166	36.5659
-36.9974	-45.8233	36.6343
-36.9914	-43.0893	36.7026
-36.9864	-42.0464	36.771
-36.9798	-40.18	36.8394
-36.9731	-38.44	36.9077
-36.9679	-41.0935	36.9761
-36.9642	-40.1745	37.0444
-36.9582	-38.9737	37.1128
-36.95208	-46.4271	37.1812
-36.9458	-48.9604	37.2495
-36.9407	-46.6932	37.3179
-36.9343	-44.51075	37.38623
-36.9296	-46.954	37.45459
-36.9228	-41.4096	37.5229
-36.9168	-39.9899	37.5913
-36.9111	-40.7548	37.6597
-36.9066	-37.2711	37.728
-36.8993	-38.0685	37.7964
-36.8936	-42.9994	37.8647
-36.8884	-48.5888	37.9331
-36.8889	-46.985	37.9429