Folder: Stress_Strain_Analysis_Tools/data/processed_data_files/tensile (part 11)

File: 0.254_hd_dimension_typeiv_090_r(9).dat
MTS793|BTW|ENU|1|2|.|/|:|1|0|0|A

Data Header:			0.254_hd_dimension_typeiv_090_r0			Time:	20.0178	s	4/14/2019 12:38:49 AM
Data Acquisition:	Timed
Station Name:	ft40.cfg
Test File Name:	monotonic_0.2540_typeiv_hd_090_dimension.tst
Displacement	Force	Running Time
mm	N	s
-40.0414	-181.313	0.0227051
-40.0381	-182.113	0.0910645
-40.0337	-177.3866	0.159424
-40.0267	-174.522	0.2277832
-40.0226	-169.381	0.296143
-40.01627	-160.793	0.364502
-40.009	-156.127	0.432861
-40.0039	-155.701	0.5012207
-39.9998	-153.332	0.56958
-39.9935	-151.462	0.637939
-39.9879	-147.795	0.706299
-39.9818	-144.404	0.7746582
-39.9765	-143.817	0.843018
-39.971	-141.625	0.911377
-39.9641	-135.945	0.979736
-39.9602	-126.3245	1.0481
-39.9535	-124.478	1.11646
-39.9479	-118.051	1.18481
-39.9422	-116.043	1.25317
-39.9353	-114.746	1.32153
-39.93055	-111.55	1.38989
-39.9242	-109.152	1.458252
-39.9196	-109.231	1.52661
-39.9143	-107.384	1.59497
-39.9077	-100.73	1.66333
-39.902	-93.5076	1.73169
-39.8965	-91.0681	1.80005
-39.8906	-84.0363	1.86841
-39.884	-80.0211	1.93677
-39.879	-81.3506	2.005127
-39.8731	-76.3762	2.07349
-39.8687	-73.4648	2.14185
-39.8627	-75.1685	2.21021
-39.8562	-72.7112	2.27856
-39.851	-68.4964	2.34692
-39.8447	-59.6905	2.41528
-39.84	-57.6613	2.48364
-39.8335	-52.4317	2.552002
-39.8281	-45.9933	2.62036
-39.8228	-45.54324	2.68872
-39.81649	-41.5848	2.75708
-39.8114	-38.1467	2.82544
-39.8055	-40.9311	2.8938
-39.799	-41.40691	2.96216
-39.7939	-33.1902	3.03052
-39.7879	-27.314	3.098877
-39.7832	-26.1805	3.16724
-39.776	-19.4837	3.2356
-39.7706	-12.3153	3.30396
-39.7655	-11.9846	3.37231
-39.7594	-7.12494	3.44067
-39.7545	-4.47845	3.50903
-39.7477	-6.40288	3.57739
-39.744	-6.11466	3.645752
-39.7367	-1.34935	3.71411
-39.7316	4.10652	3.78247
-39.72551	7.13763	3.85083
-39.7193	12.4681	3.91919
-39.7148	21.48399	3.98755
-39.7089	23.8893	4.05591
-39.7028	26.179	4.12427
-39.6973	31.26939	4.192627
-39.691	30.0525	4.26099
-39.685	28.637	4.32935
-39.6796	34.8199	4.39771
-39.6747	39.0585	4.46606
-39.6689	41.16761	4.53442
-39.6632	45.1513	4.60278
-39.658	52.6109	4.67114
-39.6526	58.2084	4.739502
-39.6457	60.1952	4.80786
-39.6402	63.776	4.87622
-39.6347	63.5403	4.94458
-39.6298	64.3788	5.01294
-39.6231	68.3372	5.0813
-39.6178	70.3851	5.14966
-39.6124	74.181	5.21802
-39.6061	78.2023	5.286377
-39.6013	83.4112	5.35474
-39.5957	91.4217	5.4231
-39.5888	94.1457	5.49146
-39.5823	97.6424	5.55981
-39.57745	96.7471	5.62817
-39.572	98.2074	5.69653
-39.5672	103.842	5.76489
-39.56086	104.7885	5.833252
-39.555	107.551	5.90161
-39.5489	111.772	5.96997
-39.54327	115.618	6.03833
-39.5378	121.2879	6.10669
-39.53183	126.611	6.17505
-39.5264	129.977	6.24341
-39.5206	128.866	6.31177
-39.5154	134.204	6.380127
-39.5098	137.549	6.44849
-39.5027	137.007	6.51685
-39.4984	140.853	6.58521
-39.4932	143.02	6.65356
-39.4867	145.112	6.72192
-39.4806	150.63	6.79028
-39.475	159.498	6.85864
-39.4699	160.369	6.927002
-39.4638	162.533	6.99536
-39.458	165.588	7.06372
-39.4526	172.242	7.13208
-39.4464	169.721	7.20044
-39.4416	171.039	7.2688
-39.4359	177.083	7.33716
-39.4296	177.983	7.40552
-39.4241	181.783	7.473877
-39.4171	189.978	7.54224
-39.4125	191.591	7.6106
-39.4067	193.231	7.67896
-39.4012	198.385	7.74731
-39.3953	204.889	7.81567
-39.3905	202.842	7.88403
-39.3849	205.281	7.95239
-39.3776	208.2825	8.020752
-39.3729	209.282	8.08911
-39.3671	213.315	8.15747
-39.3615	219.455	8.22583
-39.35545	222.328	8.29419
-39.3507	222.783	8.36255
-39.3438	229.963	8.43091
-39.3384	237.706	8.49927
-39.333	236.524	8.567627
-39.328	237.499	8.63599
-39.3211	241.064	8.70435
-39.3154	240.659	8.77271
-39.31	243.414	8.84106
-39.3048	248.292	8.90942
-39.2987	250.929	8.97778
-39.2933	254.277	9.04614
-39.2866	261.328	9.114502
-39.2817	268.944	9.18286
-39.2755	268.628	9.25122
-39.2699	268.8	9.31958
-39.2642	272.7793	9.38794
-39.2588	273.213	9.4563
-39.253	275.295	9.52466
-39.2471	277.439	9.59302
-39.2422	281.584	9.661377
-39.2359	283.223	9.72974
-39.2303	288.568	9.7981
-39.2247	296.368	9.86646
-39.2189	298.491	9.93481
-39.2128	300.255	10.0032
-39.2079	303.456	10.0715
-39.202	303.501	10.1399
-39.1956	305.592	10.2083
-39.1902	307.277	10.2766
-39.1845	308.68	10.345
-39.1796	310.755	10.41333
-39.17313	318.185	10.4817
-39.16777	324.528	10.55
-39.1621	327.246	10.6184
-39.1571	329.886	10.6868
-39.1503	332.606	10.7551
-39.1447	333.6973	10.8235
-39.1389	333.801	10.8918
-39.1341	335.759	10.9602
-39.128	335.999	11.0286
-39.1231	337.696	11.0969
-39.1162	345.979	11.1653
-39.1107	350.158	11.2336
-39.1045	353.9487	11.302
-39.0987	358.557	11.3704
-39.0944	360.524	11.4387
-39.088	360.756	11.50708
-39.0827	363.493	11.5754
-39.0761	363.555	11.6438
-39.0715	361.343	11.7122
-39.0652	364.246	11.7805
-39.059	373.191	11.8489
-39.05386	373.773	11.9172
-39.0484	378.677	11.9856
-39.0419	383.684	12.054
-39.036	384.768	12.1223
-39.0312	386.098	12.1907
-39.0246	389.662	12.259
-39.0201	390.969	12.3274
-39.014	386.068	12.3958
-39.0088	389.535	12.4641
-39.0025	396.332	12.5325
-38.997	396.593	12.60083
-38.9911	400.293	12.6692
-38.9847	407.967	12.7375
-38.9795	408.598	12.8059
-38.9734	411.476	12.8743
-38.9681	413.513	12.9426
-38.9626	413.204	13.011
-38.9583	408.101	13.0793
-38.951	410.279	13.1477
-38.94537	416.466	13.2161
-38.9386	417.683	13.2844
-38.9343	418.323	13.3528
-38.92712	425.9126	13.4211
-38.9231	427.859	13.4895
-38.91729	430.094	13.5579
-38.912	430.831	13.6262
-38.906	431.245	13.69458
-38.89962	427.173	13.7629
-38.8942	427.291	13.8313
-38.8894	432.508	13.8997
-38.8828	430.691	13.968
-38.8785	431.431	14.0364
-38.8717	439.27	14.1047
-38.86557	441.893	14.1731
-38.8591	443.06	14.2415
-38.8545	446.83	14.3098
-38.8486	445.142	14.3782
-38.8425	441.558	14.4465
-38.83762	440.937	14.5149
-38.8313	445.429	14.5833
-38.8252	442.36	14.6516
-38.8203	443.213	14.72
-38.8136	445.762	14.78833
-38.808	450.3392	14.8567
-38.8017	451.112	14.925
-38.7975	453.178	14.9934
-38.79031	453.224	15.0618
-38.7856	449.465	15.1301
-38.7804	447.8447	15.1985
-38.7746	450.084	15.2668
-38.77	448.951	15.3352
-38.76432	447.774	15.4036
-38.7578	450.582	15.4719
-38.7525	452.867	15.5403
-38.7458	453.995	15.6086
-38.74	453.887	15.677
-38.7353	455.237	15.7454
-38.7288	453.394	15.8137
-38.7228	452.229	15.88208
-38.718	452.289	15.9504
-38.7123	449.35	16.0188
-38.7059	449.688	16.0872
-38.6997	448.956	16.1555
-38.694	448.8938	16.2239
-38.6897	452.941	16.2922
-38.6837	453.059	16.3606
-38.67765	451.232	16.429
-38.6722	450.961	16.4973
-38.6677	451.627	16.5657
-38.6598	449.406	16.634
-38.6546	446.999	16.7024
-38.6493	446.2377	16.7708
-38.64444	443.235	16.8391
-38.6378	443.635	16.9075
-38.6317	446.221	16.97583
-38.6274	447.125	17.0442
-38.61948	444.41	17.1125
-38.6158	446.255	17.1809
-38.6085	449.424	17.2493
-38.6042	445.3	17.3176
-38.598	442.448	17.386
-38.5923	440.955	17.4543
-38.5868	441.762	17.5227
-38.58176	437.907	17.5911
-38.5751	439.913	17.6594
-38.57	442.162	17.7278
-38.5646	438.981	17.7961
-38.5576	441.294	17.8645
-38.553	444.752	17.9329
-38.5472	443.056	18.0012
-38.5406	440.663	18.06958
-38.5354	439.69	18.1379
-38.53	437.248	18.2063
-38.5243	435.445	18.2747
-38.5186	436.754	18.343
-38.5121	437.277	18.4114
-38.5061	433.686	18.4797
-38.501	436.111	18.5481
-38.4954	443.059	18.6165
-38.4897	439.634	18.6848
-38.4841	438.024	18.7532
-38.478	439.557	18.8215
-38.472	435.466	18.8899
-38.4674	433.569	18.9583
-38.4619	433.918	19.0266
-38.4562	432.905	19.095
[...]
-37.8535	427.388	26.3215
-37.8491	429.0593	26.3704
-37.8446	428.32	26.4192
-37.8414	423.5585	26.468
-37.8379	426.798	26.5168
-37.8336	426.295	26.5657
-37.8287	425.5043	26.6145
-37.8246	421.14	26.66333
-37.8203	423.131	26.7122
-37.8163	427.592	26.761
-37.8126	429.195	26.8098
-37.8083	426.108	26.8586
-37.8041	422.591	26.9075
-37.7997	423.589	26.9563
-37.7955	428.812	27.0051
-37.7931	427.251	27.054
-37.7884	424.623	27.1028
-37.7841	424.318	27.1516
-37.7795	427.166	27.2004
-37.7763	427.624	27.2493
-37.77206	423.929	27.2981
-37.7678	420.1666	27.3469
-37.7643	422.381	27.3958
-37.7593	428.866	27.44458
-37.7554	429.765	27.4934
-37.7526	425.0719	27.5422
-37.7478	420.293	27.5911
-37.7435	424.492	27.6399
-37.7407	427.881	27.6887
-37.7346	425.204	27.7375
-37.7318	421.886	27.7864
-37.7271	421.353	27.8352
-37.72345	428.712	27.884
-37.7203	428.061	27.9329
-37.7155	422.0386	27.9817
-37.7101	418.607	28.0305
-37.7079	423.45	28.0793
-37.7035	428.129	28.1282
-37.6998	427.538	28.177
-37.6946	424.634	28.22583
-37.6906	420.783	28.2747
-37.68758	423.945	28.3235
-37.6825	426.341	28.3723
-37.6787	424.112	28.4211
-37.6739	420.396	28.47
-37.6708	421.613	28.5188
-37.6667	427.866	28.5676
-37.662	427.672	28.6165
-37.6593	420.505	28.6653
-37.6538	418.84	28.7141
-37.6499	421.893	28.7629
-37.6457	428.113	28.8118
-37.6423	427.575	28.8606
-37.6387	422.514	28.9094
-37.6337	420.456	28.9583
-37.6305	425.196	29.00708
-37.6249	427.01	29.0559
-37.6222	422.637	29.1047
-37.6178	417.708	29.1536
-37.61351	422.339	29.2024
-37.6094	426.822	29.2512
-37.6046	424.951	29.3
-37.6015	418.047	29.3489
-37.5965	417.01	29.3977
-37.5936	422.702	29.4465
-37.5894	428.092	29.4954
-37.5838	424.731	29.5442
-37.5812	419.418	29.593
-37.5771	421.253	29.6418
-37.573	424.905	29.6907
-37.5682	425.493	29.7395
-37.5641	419.929	29.78833
-37.5611	418.015	29.8372
-37.55587	421.175	29.886
-37.5519	425.9332	29.9348
-37.5488	423.112	29.9836
-37.5449	415.697	30.0325
-37.5397	413.697	30.0813
-37.5361	422.3125	30.1301
-37.5322	425.246	30.179
-37.5287	422.26	30.2278
-37.525	420.574	30.2766
-37.5209	420.092	30.3254
-37.51556	425.704	30.3743
-37.5105	424.757	30.4231
-37.5084	418.833	30.4719
-37.5036	416.07	30.5208
-37.4999	420.665	30.56958
-37.497	423.918	30.6184
-37.4908	418.688	30.6672
-37.4874	413.693	30.7161
-37.4826	413.573	30.7649
-37.4785	420.515	30.8137
-37.475	421.651	30.8625
-37.4707	417.954	30.9114
-37.4666	415.673	30.9602
-37.4633	419.859	31.009
-37.4589	419.767	31.0579
-37.4548	418.968	31.1067
-37.4513	414.547	31.1555
-37.4469	414.75	31.2043
-37.4421	417.022	31.2532
-37.4386	414.682	31.302
-37.434	404.603	31.35083
-37.4286	-64.1418	31.3997
-37.4246	-45.3577	31.4485
-37.4216	-40.9148	31.4973
-37.41835	-41.1013	31.5461
-37.4134	-45.2282	31.595
-37.4094	-44.3707	31.6438
-37.4061	-38.8739	31.6926
-37.4006	-39.4861	31.7415
-37.3975	-42.5854	31.7903
-37.3918	-45.7806	31.8391
-37.3893	-42.1972	31.8879
-37.3847	-37.8754	31.9368
-37.3799	-39.9606	31.9856
-37.3756	-45.1079	32.0344
-37.3724	-46.54517	32.0833
-37.3684	-45.182	32.13208
-37.36578	-43.4341	32.1809
-37.361	-45.0141	32.2297
-37.357	-45.2133	32.2786
-37.3534	-42.515	32.3274
-37.3485	-38.4801	32.3762
-37.3445	-40.6783	32.425
-37.3415	-44.4834	32.4739
-37.3363	-45.1099	32.5227
-37.3316	-41.8173	32.5715
-37.3283	-39.13649	32.6204
-37.3242	-42.408	32.6692
-37.3202	-44.9045	32.718
-37.316	-44.7253	32.7668
-37.3131	-44.4421	32.8157
-37.3073	-43.6597	32.8645
-37.30447	-47.8242	32.91333
-37.3004	-45.9562	32.9622
-37.295	-41.2382	33.011
-37.2915	-39.2065	33.0598
-37.2871	-42.19	33.1086
-37.2833	-45.5779	33.1575
-37.2799	-43.7922	33.2063
-37.2758	-38.1743	33.2551
-37.2718	-39.24511	33.304
-37.2698	-45.7775	33.3333

File: 0.254_hd_dimension_typeiv_090_r(10).dat
MTS793|BTW|ENU|1|2|.|/|:|1|0|0|A

Data Header:			0.254_hd_dimension_typeiv_090_r0			Time:	20.0188	s	4/14/2019 12:42:45 AM
Data Acquisition:	Timed
Station Name:	ft40.cfg
Test File Name:	monotonic_0.2540_typeiv_hd_090_dimension.tst
Displacement	Force	Running Time
mm	N	s
-40.0415	-241.972	0.0227051
-40.0408	-242.879	0.0910645
-40.0351	-240.2119	0.159424
-40.0294	-234.435	0.2277832
-40.02401	-230.976	0.296143
-40.0181	-225.367	0.364502
-40.0134	-221.958	0.432861
-40.0077	-222.065	0.5012207
-40.0013	-223.51	0.56958
-39.9964	-221.217	0.637939
-39.99	-217.69	0.706299
-39.9847	-214.196	0.7746582
-39.97887	-208.088	0.843018
-39.9723	-202.01	0.911377
-39.9675	-199.054	0.979736
-39.962	-193.904	1.0481
-39.95602	-190.922	1.11646
-39.9505	-190.602	1.18481
-39.9447	-191.272	1.25317
-39.9393	-187.343	1.32153
-39.93343	-183.452	1.38989
-39.9286	-179.982	1.458252
-39.9215	-177.293	1.52661
-39.9166	-171.018	1.59497
-39.90892	-168.815	1.66333
-39.9042	-163.015	1.73169
-39.8986	-156.774	1.80005
-39.8921	-155.497	1.86841
-39.88773	-156.746	1.93677
-39.8811	-155.077	2.005127
-39.8759	-148.742	2.07349
-39.8703	-147.777	2.14185
-39.86525	-145.33	2.21021
-39.8587	-139.088	2.27856
-39.8536	-134.593	2.34692
-39.84819	-129.768	2.41528
-39.8419	-124.166	2.48364
-39.8366	-120.159	2.552002
-39.831	-121.182	2.62036
-39.8253	-120.154	2.68872
-39.8192	-114.026	2.75708
-39.814	-113.259	2.82544
-39.8083	-114.078	2.8938
-39.8017	-107.653	2.96216
-39.79623	-101.832	3.03052
-39.7912	-96.78	3.098877
-39.78466	-92.3069	3.16724
-39.7798	-86.5	3.2356
-39.77351	-87.8749	3.30396
-39.7686	-87.4855	3.37231
-39.7617	-81.2771	3.44067
-39.7567	-81.158	3.50903
-39.7501	-80.6185	3.57739
-39.7454	-75.7483	3.645752
-39.7396	-70.34478	3.71411
-39.7334	-66.2791	3.78247
-39.7285	-61.1177	3.85083
-39.7225	-55.6355	3.91919
-39.7164	-54.6252	3.98755
-39.7108	-54.2659	4.05591
-39.7058	-48.9283	4.12427
-39.6993	-47.46846	4.192627
-39.6953	-46.1488	4.26099
-39.6886	-44.6581	4.32935
-39.6842	-40.5131	4.39771
-39.6771	-34.5235	4.46606
-39.6711	-28.8522	4.53442
-39.6655	-24.9818	4.60278
-39.6601	-22.8322	4.67114
-39.656	-20.9138	4.739502
-39.6488	-16.1537	4.80786
-39.6421	-13.3304	4.87622
-39.638	-13.1897	4.94458
-39.6322	-11.8808	5.01294
-39.6257	-9.24559	5.0813
-39.6199	-5.1456	5.14966
-39.6151	0.629454	5.21802
-39.609	6.30099	5.286377
-39.6035	8.54035	5.35474
-39.597	10.1248	5.4231
-39.592	17.4017	5.49146
-39.5861	18.0963	5.55981
-39.5797	15.6324	5.62817
-39.5746	21.5808	5.69653
-39.5688	22.8014	5.76489
-39.5632	25.5841	5.833252
-39.5574	31.1391	5.90161
-39.5521	36.5222	5.96997
-39.5464	41.0052	6.03833
-39.5406	40.987	6.10669
-39.5352	48.9026	6.17505
-39.5298	51.7809	6.24341
-39.5231	49.9725	6.31177
-39.5182	52.4728	6.380127
-39.5123	53.7883	6.44849
-39.5068	55.6731	6.51685
-39.4994	61.0788	6.58521
-39.4948	66.9893	6.65356
-39.4902	70.5609	6.72192
-39.4839	71.0568	6.79028
-39.47715	78.54969	6.85864
-39.4723	83.7759	6.927002
-39.4666	83.4157	6.99536
-39.4613	85.2415	7.06372
-39.4548	87.73867	7.13208
-39.4501	88.3156	7.20044
-39.4443	92.4648	7.2688
-39.4384	96.3519	7.33716
-39.4325	99.1408	7.40552
-39.4265	101.895	7.473877
-39.42141	107.238	7.54224
-39.4162	113.756	7.6106
-39.4109	113.586	7.67896
-39.404	116.081	7.74731
-39.3983	118.455	7.81567
-39.3919	118.998	7.88403
-39.387	122.191	7.95239
-39.3821	125.9	8.020752
-39.3752	129.1	8.08911
-39.3708	130.301	8.15747
-39.3651	134.805	8.22583
-39.3592	141.749	8.29419
-39.3534	143.575	8.36255
-39.3478	146.903	8.43091
-39.3417	147.695	8.49927
-39.3356	147.25	8.567627
-39.3291	151.949	8.63599
-39.3246	152.285	8.70435
-39.3184	154.717	8.77271
-39.3119	157.439	8.84106
-39.3073	162.996	8.90942
-39.3009	169.031	8.97778
-39.2954	171.235	9.04614
-39.2899	174.208	9.114502
-39.2844	176.835	9.18286
-39.2787	176.285	9.25122
-39.2729	179.623	9.31958
-39.2665	180.562	9.38794
-39.2618	181.772	9.4563
-39.2559	182.013	9.52466
-39.2513	189.557	9.59302
-39.2448	194.815	9.661377
-39.2388	197.971	9.72974
-39.23233	200.808	9.7981
-39.2272	204.336	9.86646
-39.2221	204.386	9.93481
-39.21664	205.311	10.0032
-39.2101	207.862	10.0715
-39.2053	207.546	10.1399
-39.1983	205.819	10.2083
-39.1929	211.579	10.2766
-39.1874	220.267	10.345
-39.1819	220.797	10.41333
-39.1762	225.131	10.4817
-39.1707	230.216	10.55
-39.164	229.832	10.6184
-39.1589	229.8855	10.6868
-39.1525	232.484	10.7551
-39.1478	232.604	10.8235
-39.1414	230.0658	10.8918
-39.1372	235.1781	10.9602
-39.1302	242.228	11.0286
-39.125	244.615	11.0969
-39.1185	247.665	11.1653
-39.1126	252.203	11.2336
-39.10709	254.226	11.302
-39.1019	256.628	11.3704
-39.0971	256.738	11.4387
-39.0906	257.529	11.50708
-39.0843	255.688	11.5754
-39.0788	257.027	11.6438
-39.0721	263.91	11.7122
-39.0676	268.03	11.7805
-39.062	269.72	11.8489
-39.05698	274.108	11.9172
-39.0502	278.181	11.9856
-39.0445	280.606	12.054
-39.0396	279.2475	12.1223
-39.0329	280.423	12.1907
-39.0282	279.272	12.259
-39.0228	278.433	12.3274
-39.01712	284.509	12.3958
-39.0106	288.329	12.4641
-39.0047	289.574	12.5325
-38.9989	294.921	12.60083
-38.9922	297.643	12.6692
-38.9875	303.245	12.7375
-38.9824	304.0155	12.8059
-38.9769	303.142	12.8743
-38.9716	301.967	12.9426
-38.9657	303.407	13.011
-38.9593	305.653	13.0793
-38.9532	307.675	13.1477
-38.9467	310.52	13.2161
-38.9428	315.407	13.2844
-38.9373	317.667	13.3528
-38.93087	322.312	13.4211
-38.926	325.686	13.4895
-38.9191	326.109	13.5579
-38.9127	323.268	13.6262
-38.9088	324.394	13.69458
-38.9032	327.598	13.7629
-38.8949	326.972	13.8313
-38.8906	328.815	13.8997
-38.886	334.138	13.968
-38.8786	337.609	14.0364
-38.875	341.78	14.1047
-38.868	345.399	14.1731
-38.8624	346.523	14.2415
-38.85775	342.7728	14.3098
-38.852	342.484	14.3782
-38.8454	346.861	14.4465
-38.83942	346.608	14.5149
-38.834	345.805	14.5833
-38.82885	352.723	14.6516
-38.8226	354.087	14.72
-38.8189	357.233	14.78833
-38.8115	363.712	14.8567
-38.8064	363.952	14.925
-38.7998	359.732	14.9934
-38.7945	359.292	15.0618
-38.7879	363.886	15.1301
-38.7829	363.688	15.1985
-38.7772	362.066	15.2668
-38.7716	365.766	15.3352
-38.7656	368.365	15.4036
-38.75975	370.93	15.4719
-38.7539	375.321	15.5403
-38.7494	378.953	15.6086
-38.7429	376.4408	15.677
-38.7375	375.911	15.7454
-38.7313	379.238	15.8137
-38.7262	379.4852	15.88208
-38.7207	375.088	15.9504
-38.7146	378.195	16.0188
-38.70842	382.65	16.0872
-38.7031	384.642	16.1555
-38.698	385.898	16.2239
-38.6895	390.796	16.2922
-38.6858	388.257	16.3606
-38.6801	389.1387	16.429
-38.6742	393.179	16.4973
-38.6691	391.042	16.5657
-38.6619	389.425	16.634
-38.6579	389.672	16.7024
-38.65176	392.453	16.7708
-38.6448	394.192	16.8391
-38.6402	396.9	16.9075
-38.6341	400.125	16.97583
-38.62912	401.591	17.0442
-38.6226	400.363	17.1125
-38.6173	403.713	17.1809
-38.612	402.045	17.2493
-38.6053	400.854	17.3176
-38.6005	399.69	17.386
-38.5959	397.836	17.4543
-38.5894	400.753	17.5227
-38.5836	404.065	17.5911
-38.578	405.4129	17.6594
-38.5718	406.034	17.7278
-38.5671	407.46	17.7961
-38.5603	410.262	17.8645
-38.5535	409.714	17.9329
-38.5493	407.477	18.0012
-38.5438	407.205	18.06958
-38.5381	405.119	18.1379
-38.532	405.258	18.2063
-38.5264	408.582	18.2747
-38.5201	411.711	18.343
-38.5151	411.353	18.4114
-38.5086	413.136	18.4797
-38.5032	417.396	18.5481
-38.4962	415.188	18.6165
-38.4928	411.84	18.6848
-38.4858	412.786	18.7532
-38.4806	412.1	18.8215
-38.47488	408.673	18.8899
-38.4697	411.171	18.9583
-38.4634	414.01	19.0266
[...]
-38.4522	413.1315	19.16333
-38.4461	419.714	19.2317
-38.4398	420.043	19.3
-38.4355	416.524	19.3684
-38.4288	416.97	19.4368
-38.4236	414.607	19.5051
-38.4188	411.2948	19.5735
-38.4116	412.159	19.6418
-38.4069	411.635	19.7102
-38.399	411.644	19.7786
-38.3946	413.54	19.8469
-38.3897	417.087	19.9153
-38.3829	420.035	19.9836
-38.3817	407.993	20.0129

Data Header:			0.254_hd_dimension_typeiv_090_r0			Time:	21.1924	s	4/14/2019 12:42:46 AM
Data Acquisition:	Timed
Station Name:	ft40.cfg
Test File Name:	monotonic_0.2540_typeiv_hd_090_dimension.tst
Displacement	Force	Running Time
mm	N	s
-38.3793	408.629	20.0227
-38.3807	416.64	20.0325
-38.3786	418.609	20.0422
-38.3777	415.612	20.052
-38.3767	414.307	20.0618
-38.3765	411.545	20.0715
-38.3754	407.779	20.0813
-38.3751	412.587	20.0911
-38.375	415.072	20.10083
-38.3739	420.07	20.1106
-38.3727	416.636	20.1204
-38.3709	408.559	20.1301
-38.3707	409.46	20.1399
-38.3706	411.854	20.1497
-38.3693	414.37	20.1594
-38.36771	413.5701	20.1692
-38.367	412.58	20.179
-38.3666	411.321	20.1887
-38.3653	407.889	20.1985
-38.3649	409.2782	20.2083
-38.3644	409.737	20.218
-38.3639	413.9321	20.2278
-38.3617	414.059	20.2375
-38.3611	408.213	20.2473
-38.3611	406.819	20.25708
-38.3606	406.373	20.2668
-38.3606	407.858	20.2766
-38.3579	410.134	20.2864
-38.3568	409.956	20.2961
-38.3574	410.21	20.3059
-38.35622	406.989	20.3157
-38.3559	401.485	20.3254
-38.3551	394.323	20.3352
-38.35	-1.65235	20.345
-38.3499	-14.9569	20.3547
-38.34898	-43.5668	20.3645
-38.3492	-52.8054	20.3743
-38.3482	-46.1198	20.384
-38.3485	-40.4251	20.3938
-38.3487	-45.5423	20.4036
-38.3458	-41.459	20.41333
-38.3461	-42.2589	20.4231
-38.3456	-39.2522	20.4329
-38.3461	-44.0457	20.4426
-38.3431	-47.3124	20.4524
-38.3429	-45.4161	20.4622
-38.3425	-41.361	20.4719
-38.3423	-42.352	20.4817
-38.3414	-37.7119	20.4915
-38.3395	-43.2931	20.5012
-38.3401	-44.34766	20.511
-38.3383	-46.8143	20.5208
-38.3369	-46.9414	20.5305
-38.3374	-41.5507	20.5403
-38.3365	-39.7309	20.55
-38.3357	-40.14286	20.5598
-38.3339	-46.3115	20.56958
-38.3329	-50.1048	20.5793
-38.3331	-44.2718	20.5891
-38.3318	-43.1806	20.5989
-38.3313	-39.4908	20.6086
-38.33147	-41.1451	20.6184
-38.3295	-43.7821	20.6282
-38.3282	-45.1296	20.6379
-38.3287	-48.8337	20.6477
-38.327	-43.4063	20.6575
-38.3268	-39.6055	20.6672
-38.3254	-39.26659	20.677
-38.3251	-43.6911	20.6868
-38.3254	-48.0723	20.6965
-38.3238	-47.5176	20.7063
-38.3224	-42.146	20.7161
-38.3205	-42.2897	20.72583
-38.32085	-40.3862	20.7356
-38.3193	-39.1908	20.7454
-38.3204	-44.0066	20.7551
-38.318	-47.6727	20.7649
-38.3181	-46.1836	20.7747
-38.3161	-42.6263	20.7844
-38.3165	-38.2983	20.7942
-38.315	-39.8853	20.804
-38.3144	-45.3097	20.8137
-38.3134	-47.0307	20.8235
-38.3128	-44.881	20.8333
-38.3117	-41.4211	20.843
-38.3114	-42.6028	20.8528
-38.3107	-40.4906	20.8625
-38.309	-41.0163	20.8723
-38.3091	-45.9265	20.88208
-38.3084	-44.4898	20.8918
-38.3066	-47.1573	20.9016
-38.3061	-40.9778	20.9114
-38.3063	-38.7668	20.9211
-38.3048	-42.7535	20.9309
-38.304	-44.5924	20.9407
-38.303	-45.04171	20.9504
-38.3014	-44.8214	20.9602
-38.3015	-44.15205	20.97
-38.3014	-43.464	20.9797
-38.3007	-39.2194	20.9895
-38.2993	-42.60096	20.9993
-38.29834	-44.0919	21.009
-38.29734	-46.2106	21.0188
-38.2971	-47.0187	21.0286
-38.2951	-41.4333	21.03833
-38.2943	-42.7822	21.0481
-38.2939	-41.6463	21.0579
-38.2928	-43.5159	21.0676
-38.2937	-46.5508	21.0774
-38.2917	-46.3446	21.0872
-38.2915	-43.9755	21.0969
-38.2907	-41.6973	21.1067
-38.2883	-38.1737	21.1165
-38.2892	-42.9369	21.1262
-38.2871	-46.5119	21.136
-38.2863	-48.0651	21.1458
-38.2859	-43.2967	21.1555
-38.2853	-41.4077	21.1653
-38.2843	-39.2615	21.175
-38.2831	-41.1318	21.1848