Folder: Stress_Strain_Analysis_Tools/data/processed_data_files/tensile (part 32)

File: 0.254_solid_dimension_typei_090_r(6).dat
MTS793|BTW|ENU|1|2|.|/|:|1|0|0|A

Data Header:			0.254_solid_dimension_typei_090_r0			Time:	20.0178	s	4/15/2019 2:31:25 PM
Data Acquisition:	Timed
Station Name:	ft40.cfg
Test File Name:	monotonic_0.2540_typei_solid_090_dimension.tst
Displacement	Force	Running Time
mm	N	s
9.97263	-161.825	0.0222168
9.974556	-160.387	0.0905762
9.97918	-151.677	0.158936
9.98562	-149.853	0.227295
9.990407	-144.526	0.2956543
9.995245	-142.736	0.364014
10.0015	-141.568	0.432373
10.0072	-145.582	0.500732
10.0139	-142.831	0.5690918
10.0194	-133.896	0.637451
10.02504	-128.804	0.705811
10.03014	-123.79	0.77417
10.0346	-115.559	0.8425293
10.0425	-110.011	0.910889
10.048	-106.116	0.979248
10.0523	-103.179	1.04761
10.0592	-100.664	1.11597
10.0639	-103.007	1.18433
10.0711	-103.196	1.25269
10.0764	-95.6829	1.32104
10.0826	-90.6929	1.3894
10.08758	-87.039	1.45776
10.0921	-80.106	1.526123
10.0989	-70.8854	1.59448
10.1047	-64.7261	1.66284
10.1108	-61.85648	1.7312
10.116	-59.3514	1.79956
10.1215	-58.0711	1.86792
10.1274	-60.5673	1.93628
10.1333	-54.6472	2.00464
10.138	-50.3998	2.072998
10.145	-46.2105	2.14136
10.1498	-36.8275	2.20972
10.1566	-31.1834	2.27808
10.1613	-25.6276	2.34644
10.1673	-19.1042	2.41479
10.1728	-16.1202	2.48315
10.1788	-17.4442	2.55151
10.1841	-16.019	2.619873
10.1898	-12.5247	2.68823
10.1958	-8.40138	2.75659
10.2001	-6.63149	2.82495
10.2076	1.43047	2.89331
10.2122	8.42331	2.96167
10.2176	12.6685	3.03003
10.2233	23.82082	3.09839
10.2301	28.8826	3.166748
10.2355	26.8933	3.23511
10.2417	27.27309	3.30347
10.2467	31.3461	3.37183
10.2523	34.0806	3.44019
10.259	34.2488	3.50854
10.2635	40.1973	3.5769
10.2695	49.4949	3.64526
10.2746	54.5897	3.713623
10.2817	63.1861	3.78198
10.2871	69.6245	3.85034
10.2929	71.829	3.9187
10.2977	70.5731	3.98706
10.30373	75.2835	4.05542
10.3106	77.6871	4.12378
10.3151	76.3114	4.19214
10.3204	81.7175	4.260498
10.3264	89.1555	4.32886
10.332	94.61689	4.39722
10.3381	101.051	4.46558
10.3444	110.564	4.53394
10.3497	114.149	4.60229
10.355	113.623	4.67065
10.3601	116.701	4.73901
10.3667	121.228	4.807373
10.3722	120.788	4.87573
10.3778	123.023	4.94409
10.3839	126.871	5.01245
10.3892	134.898	5.08081
10.3947	141.608	5.14917
10.4003	149.271	5.21753
10.4061	156.072	5.28589
10.4109	157.882	5.354248
10.4176	160.223	5.42261
10.424	164.838	5.49097
10.4287	163.829	5.55933
10.4343	165.033	5.62769
10.4397	169.706	5.69604
10.4457	173.454	5.7644
10.4526	182.411	5.83276
10.4575	191.039	5.901123
10.46325	194.756	5.96948
10.4684	198.37	6.03784
10.4744	204.176	6.1062
10.4798	207.826	6.17456
10.48632	207.471	6.24292
10.49198	208.45	6.31128
10.49719	212.18	6.37964
10.5031	212.975	6.447998
10.508	220.49	6.51636
10.5147	228.539	6.58472
10.52	235.318	6.65308
10.5261	238.525	6.72144
10.5312	244.747	6.78979
10.5369	252.597	6.85815
10.5424	250.62	6.92651
10.5476	250.978	6.994873
10.5553	254.907	7.06323
10.561	255.569	7.13159
10.5664	259.264	7.19995
10.571	268.401	7.26831
10.5777	275.611	7.33667
10.58304	279.211	7.40503
10.5883	285.3	7.47339
10.5938	294.314	7.541748
10.6003	294.597	7.61011
10.6051	292.767	7.67847
10.61059	296.027	7.74683
10.6167	296.853	7.81519
10.6223	300.2	7.88354
10.6279	306.443	7.9519
10.6349	315.785	8.02026
10.6402	319.096	8.088623
10.64614	324.236	8.15698
10.652	334.261	8.22534
10.6556	337.703	8.2937
10.6628	337.539	8.36206
10.668	338.697	8.43042
10.6737	340.552	8.49878
10.6798	341.8168	8.56714
10.68566	345.702	8.635498
10.6905	352.15	8.70386
10.6966	359.195	8.77222
10.7025	363.794	8.84058
10.70869	373.554	8.90894
10.713	378.638	8.97729
10.7196	381.5274	9.04565
10.7252	382.216	9.11401
10.7307	382.586	9.182373
10.7365	382.371	9.25073
10.7424	386.235	9.31909
10.7474	390.093	9.38745
10.7541	395.592	9.45581
10.75969	401.772	9.52417
10.76521	411.99	9.59253
10.7716	417.411	9.66089
10.777	421.664	9.729248
10.7819	426.64	9.79761
10.78823	424.22	9.86597
10.7935	424.554	9.93433
10.7991	426.0788	10.0027
10.8043	429.179	10.071
10.8112	432.267	10.1394
10.8171	436.879	10.2078
10.8217	449.609	10.2761
10.8282	455.808	10.3445
10.8339	460.508	10.4128
10.8396	466.028	10.4812
10.8446	467.058	10.5496
10.8507	465.765	10.61792
10.85667	467.7695	10.6863
10.8619	470.289	10.7546
10.8678	471.297	10.823
10.8741	475.709	10.8914
10.8791	486.251	10.9597
10.885	493.749	11.0281
10.8905	499.628	11.0964
10.896	506.465	11.1648
10.9023	510.104	11.2332
10.9069	506.141	11.3015
10.9131	508.776	11.3699
10.9182	510.059	11.4382
10.92382	510.481	11.5066
10.9292	511.273	11.575
10.9363	520.8	11.6433
10.94154	531.063	11.71167
10.9464	534.925	11.78
10.953	540.635	11.8484
10.9591	547.478	11.9167
10.9647	548.538	11.9851
10.97	549.495	12.0535
10.9763	549.327	12.1218
10.9807	549.3	12.1902
10.989	549.078	12.2585
10.9929	555.113	12.3269
10.9984	564.595	12.3953
11.00542	571.135	12.4636
11.0105	577.364	12.532
11.01643	584.496	12.6003
11.0213	587.634	12.6687
11.0265	590.656	12.7371
11.0327	588.629	12.80542
11.0383	588.469	12.8738
11.044	587.69	12.9421
11.0496	592.165	13.0105
11.0555	599.786	13.0789
11.0614	606.779	13.1472
11.067	611.844	13.2156
11.07208	620.328	13.2839
11.0783	624.235	13.3523
11.083	629.142	13.4207
11.0898	630.078	13.489
11.0951	629.208	13.5574
11.1004	625.361	13.6257
11.1076	629.17	13.6941
11.1126	634.105	13.7625
11.11883	639.606	13.8308
11.1237	647.9	13.89917
11.1292	655.299	13.9675
11.1359	660.208	14.0359
11.1394	667.359	14.1042
11.1471	670.0863	14.1726
11.1526	666.483	14.241
11.158	662.984	14.3093
11.1642	666.945	14.3777
11.1695	670.376	14.446
11.17471	673.405	14.5144
11.1804	679.805	14.5828
11.18611	691.697	14.6511
11.1921	695.308	14.7195
11.1972	700.849	14.7878
11.20327	707.846	14.8562
11.2092	706.086	14.9246
11.2149	703.212	14.99292
11.2202	703.76	15.0613
11.2261	709.306	15.1296
11.2323	708.8006	15.198
11.2378	715.3385	15.2664
11.2436	722.158	15.3347
11.2486	729.288	15.4031
11.2546	734.889	15.4714
11.2603	742.893	15.5398
11.2662	744.078	15.6082
11.2718	740.181	15.6765
11.2788	741.633	15.7449
11.2838	744.706	15.8132
11.2883	744.6861	15.8816
11.29386	747.484	15.95
11.3005	754.477	16.0183
11.3064	761.936	16.08667
11.3106	768.464	16.155
11.3174	775.177	16.2234
11.32378	778.783	16.2917
11.32828	777.3	16.3601
11.3351	777.246	16.4285
11.3412	780.7854	16.4968
11.3458	778.304	16.5652
11.3512	779.462	16.6335
11.357	786.0224	16.7019
11.3637	791.881	16.7703
11.3691	801.524	16.8386
11.37336	807.725	16.907
11.3798	811.892	16.9753
11.3861	812.123	17.0437
11.3915	812.801	17.1121
11.3974	816.124	17.18042
11.4027	813.291	17.2488
11.4084	814.177	17.3171
11.41404	817.786	17.3855
11.4197	822.001	17.4539
11.4254	830.0321	17.5222
11.4321	838.124	17.5906
11.4356	841.7196	17.6589
11.4424	843.686	17.7273
11.448	848.388	17.7957
11.4543	849.077	17.864
11.4599	846.2099	17.9324
11.4654	846.579	18.0007
11.4723	848.965	18.0691
11.4764	850.421	18.1375
11.483	858.318	18.2058
11.4882	867.001	18.27417
11.4934	869.876	18.3425
11.5	871.898	18.4109
11.5053	878.705	18.4792
11.5108	881.35	18.5476
11.5169	880.323	18.616
11.5225	877.23	18.6843
11.5284	880.22	18.7527
11.5325	879.366	18.821
11.54	883.494	18.8894
11.5454	892.112	18.9578
11.5508	898.396	19.0261
11.5564	898.969	19.0945
11.5629	904.846	19.1628
11.56825	910.755	19.2312
11.5736	909.314	19.2996
11.5792	909.719	19.36792
11.5839	907.866	19.4363
11.5918	906.442	19.5046
11.5957	910.316	19.573
11.6019	914.613	19.6414
11.60809	922.76	19.7097
11.6139	922.211	19.7781
11.6188	930.407	19.8464
11.6265	936.965	19.9148
[...]
Displacement	Force	Running Time
mm	N	s
13.3011	974.577	40.0222
13.3005	980.185	40.032
13.3021	977.5636	40.0417
13.303	976.338	40.0515
13.305	970.201	40.0613
13.30423	966.461	40.071
13.3057	973.727	40.0808
13.3065	974.948	40.0906
13.3072	980.536	40.1003
13.3085	976.6825	40.1101
13.3089	968.349	40.1199
13.3102	967.184	40.1296
13.3093	970.466	40.1394
13.3113	974.35	40.14917
13.3128	978.147	40.1589
13.3119	976.018	40.1687
13.3136	974.677	40.1785
13.3141	970.421	40.1882
13.3158	966.7431	40.198
13.3158	970.366	40.2078
13.3168	975.098	40.2175
13.3183	978.89	40.2273
13.3189	972.552	40.2371
13.31959	968.711	40.2468
13.3205	965.148	40.2566
13.3213	969.559	40.2664
13.3216	971.23	40.2761
13.3228	973.502	40.2859
13.32238	973.857	40.2957
13.324	972.555	40.30542
13.3248	967.1	40.3152
13.3263	963.278	40.325
13.3263	969.761	40.3347
13.3263	973.338	40.3445
13.3288	973.531	40.3542
13.3295	972.549	40.364
13.33027	964.053	40.3738
13.3309	964.991	40.3835
13.3315	964.737	40.3933
13.3331	967.699	40.4031
13.3337	972.425	40.4128
13.3349	971.751	40.4226
13.334	970.06	40.4324
13.3351	959.128	40.4421
13.3363	961.326	40.4519
13.3365	966.73	40.46167
13.3375	969.735	40.4714
13.3387	971.1601	40.4812
13.34	963.742	40.491
13.34047	958.284	40.5007
13.3411	958.107	40.5105
13.3428	957.143	40.5203
13.3435	963.426	40.53
13.3435	967.22	40.5398
13.3445	962.972	40.5496
13.346	952.596	40.5593
13.3538	-2.92464	40.5691
13.3529	-44.1372	40.5789
13.35361	-27.346	40.5886
13.35409	-28.0074	40.5984
13.3523	-47.8229	40.6082
13.3534	-43.477	40.61792
13.3538	-50.7608	40.6277
13.3536	-45.8212	40.6375
13.3539	-43.7628	40.6472
13.3555	-37.9041	40.657
13.3556	-34.7227	40.6667
13.3568	-41.8596	40.6765
13.3576	-47.2856	40.6863
13.3579	-49.1604	40.696
13.3583	-43.66423	40.7058
13.35944	-39.3434	40.7156
13.3609	-37.9787	40.7253
13.3609	-39.5501	40.7351
13.3621	-42.5869	40.7449
13.3636	-48.8877	40.7546
13.3629	-44.7277	40.7644
13.3637	-44.70874	40.77417
13.3651	-35.9058	40.7839
13.3666	-37.98893	40.7937
13.3665	-46.0469	40.8035
13.3675	-47.3393	40.8132
13.3689	-47.3933	40.823
13.36903	-42.4305	40.8328
13.37	-40.2509	40.8425
13.3711	-39.7097	40.8523
13.3723	-37.6534	40.8621
13.3722	-45.709	40.8718
13.3735	-50.1162	40.8816
13.3737	-47.449	40.8914
13.375	-41.9957	40.9011
13.3747	-35.0201	40.9109
13.37625	-38.8557	40.9207
13.3776	-43.7328	40.93042
13.3773	-47.1165	40.9402
13.3789	-47.3912	40.95
13.3797	-44.40855	40.9597
13.381	-40.77705	40.9695
13.3816	-39.6219	40.9792
13.3813	-38.3937	40.989
13.3837	-44.57267	40.9988
13.3833	-49.1072	41.0085
13.3838	-46.3133	41.0183
13.3847	-40.06303	41.0281
13.3869	-37.302	41.0378
13.38755	-39.9301	41.0476
13.3876	-44.75375	41.0574
13.3888	-47.5758	41.0671
13.38833	-48.1222	41.0769
13.3898	-44.9135	41.08667
13.3908	-39.1442	41.0964
13.3913	-35.6083	41.1062
13.3921	-40.1506	41.116
13.393	-50.1336	41.1257
13.3941	-49.0328	41.1355
13.3949	-43.5528	41.1453
13.3954	-39.4822	41.155
13.396	-35.70575	41.1648
13.3971	-40.4153	41.1746
13.3984	-44.3362	41.1843
13.3991	-48.2412	41.1941
13.4006	-50.3191	41.2039
13.3999	-41.4251	41.2136
13.402	-36.2789	41.2234
13.4024	-36.5942	41.2332
13.404	-42.179	41.24292
13.4038	-51.6788	41.2527
13.40422	-50.28104	41.2625
13.4052	-42.5099	41.2722
13.4067	-39.2001	41.282
13.40706	-38.0035	41.2917
13.4075	-42.7851	41.3015
13.409	-44.6543	41.3113
13.4086	-50.3665	41.321
13.4099	-45.843	41.3308
13.4118	-39.3217	41.3406
13.4112	-35.3247	41.3503
13.4126	-38.7393	41.3601
13.4131	-47.21862	41.3699
13.4143	-49.4354	41.3796
13.4154	-44.3154	41.3894
13.4164	-40.8495	41.39917
13.4169	-38.1159	41.4089
13.418	-38.13171	41.4187
13.4193	-42.2877	41.4285
13.4189	-45.1624	41.4382
13.4204	-46.2886	41.448

File: 0.254_solid_dimension_typei_4545_r(1).dat
MTS793|BTW|ENU|1|2|.|/|:|1|0|0|A

Data Header:			0.254_solid_dimension_typei_4545_r0			Time:	20.0178	s	4/14/2019 4:41:54 AM
Data Acquisition:	Timed
Station Name:	ft40.cfg
Test File Name:	monotonic_0.2540_typei_solid_4545_dimension.tst
Displacement	Force	Running Time
mm	N	s
9.95651	-124.427	0.0229492
9.95858	-124.337	0.0913086
9.96373	-122.917	0.159668
9.96915	-122.436	0.228027
9.97428	-122.5182	0.296387
9.98037	-123.173	0.364746
9.98622	-128.955	0.433105
9.99245	-121.846	0.501465
9.99777	-113.473	0.569824
10.00333	-108.92	0.638184
10.0095	-100.871	0.706543
10.0146	-93.1506	0.774902
10.0208	-87.9602	0.843262
10.0258	-86.414	0.911621
10.0311	-86.0145	0.97998
10.0385	-89.7706	1.04834
10.0432	-89.78064	1.1167
10.0485	-85.1778	1.18506
10.0538	-83.2142	1.253418
10.0601	-76.7108	1.32178
10.0666	-69.3212	1.39014
10.0727	-62.4253	1.4585
10.078	-52.8041	1.52686
10.0824	-48.31078	1.59521
10.0882	-46.9081	1.66357
10.095	-48.7093	1.73193
10.09979	-50.233	1.800293
10.1055	-47.8474	1.86865
10.1116	-46.6959	1.93701
10.1164	-43.0758	2.00537
10.1227	-34.5521	2.07373
10.1286	-26.5172	2.14209
10.1347	-18.124	2.21045
10.1397	-11.2754	2.27881
10.1459	-11.2568	2.347168
10.15	-10.6418	2.41553
10.1565	-9.92077	2.48389
10.1624	-10.4114	2.55225
10.1679	-9.222991	2.62061
10.1741	-5.86582	2.68896
10.1796	-0.697296	2.75732
10.1849	7.438879	2.82568
10.191	18.5115	2.894043
10.1967	23.4246	2.9624
10.2032	27.8342	3.03076
10.2082	29.7764	3.09912
10.2132	34.2644	3.16748
10.2203	30.8127	3.23584
10.2245	32.2916	3.3042
10.2313	34.2276	3.37256
10.2371	35.5586	3.440918
10.2425	45.03442	3.50928
10.2478	55.5381	3.57764
10.2526	59.643	3.646
10.2593	64.4543	3.71436
10.2657	72.7505	3.78271
10.2711	74.6706	3.85107
10.2768	72.5882	3.91943
10.2828	73.0373	3.987793
10.2885	73.69265	4.05615
10.2934	74.8522	4.12451
10.2996	81.8339	4.19287
10.3049	90.8026	4.26123
10.3113	95.0837	4.32959
10.3153	102.093	4.39795
10.3227	113.441	4.46631
10.3273	116.523	4.534668
10.3329	114.493	4.60303
10.3398	117.969	4.67139
10.3446	116.571	4.73975
10.35048	115.41	4.80811
10.3557	119.859	4.87646
10.3619	126.9938	4.94482
10.3676	130.297	5.01318
10.3735	138.757	5.081543
10.3798	150.595	5.1499
10.3843	154.9144	5.21826
10.3908	156.707	5.28662
10.3961	161.333	5.35498
10.4017	157.6566	5.42334
10.4066	156.699	5.4917
10.4128	160.7606	5.56006
10.4192	163.242	5.628418
10.4242	164.1619	5.69678
10.4306	173.6367	5.76514
10.4361	187.22	5.8335
10.44225	191.269	5.90186
10.4472	197.044	5.97021
10.4527	201.764	6.03857
10.4593	199.071	6.10693
10.46444	198.316	6.175293
10.4694	200.482	6.24365
10.4759	200.372	6.31201
10.4825	202.313	6.38037
10.4871	211.897	6.44873
10.49304	223.034	6.51709
10.4984	228.615	6.58545
10.50261	236.486	6.65381
10.5101	241.192	6.722168
10.5156	242.97	6.79053
10.5216	241.078	6.85889
10.5273	241.6644	6.92725
10.5335	239.758	6.99561
10.5381	241.203	7.06396
10.5439	251.038	7.13232
10.55	258.896	7.20068
10.5549	265.877	7.269043
10.5616	275.039	7.3374
10.5672	281.489	7.40576
10.5722	283.883	7.47412
10.5784	284.477	7.54248
10.584	284.873	7.61084
10.5895	280.605	7.6792
10.5954	278.968	7.74756
10.60041	289.327	7.815918
10.6057	294.174	7.88428
10.6123	300.744	7.95264
10.61672	310.919	8.021
10.6247	317.783	8.08936
10.62849	325.28	8.15771
10.6352	326.142	8.22607
10.64093	325.841	8.29443
10.6466	321.7	8.362793
10.6524	321.366	8.43115
10.6588	325.803	8.49951
10.6642	329.376	8.56787
10.669	335.13	8.63623
10.6753	345.248	8.70459
10.6808	353.649	8.77295
10.6865	360.97	8.84131
10.69212	367.616	8.909668
10.6978	367.1384	8.97803
10.703	366.506	9.04639
10.7086	366.825	9.11475
10.7146	366.31	9.18311
10.7206	366.421	9.25146
10.72696	370.256	9.31982
10.7304	377.349	9.38818
10.7383	387.225	9.456543
10.7438	400.028	9.5249
10.7486	403.395	9.59326
10.7546	407.016	9.66162
10.7594	409.139	9.72998
10.7666	409.144	9.79834
10.7721	406.415	9.8667
10.7769	404.502	9.93506
10.7827	405.313	10.0034
10.789	410.085	10.0718
10.7948	421.128	10.1401
10.8002	430.651	10.2085
10.8057	437.633	10.2769
10.8117	443.8728	10.3452
10.8171	449.279	10.4136
10.8227	450.074	10.4819
10.8292	447.878	10.5503
10.8341	446.03	10.6187
10.8406	444.104	10.687
10.8451	446.806	10.7554
10.8517	454.189	10.82373
10.8571	464.221	10.89209
10.8627	470.337	10.9604
10.8669	480.484	11.0288
10.874	489.107	11.0972
10.8799	489.991	11.1655
10.886	489.256	11.2339
10.8927	489.503	11.3022
10.89712	483.798	11.3706
10.9022	484.791	11.439
10.9077	489.025	11.5073
10.9128	496.591	11.5757
10.9193	499.7388	11.644
10.9255	512.865	11.7124
10.9311	526.265	11.7808
10.9362	526.613	11.8491
10.9424	528.507	11.91748
10.94744	529.1676	11.98584
10.9545	524.431	12.0542
10.9588	523.979	12.1226
10.966	524.242	12.1909
10.9715	526.446	12.2593
10.977	531.537	12.3276
10.9823	545.782	12.396
10.9881	556.21	12.4644
10.9935	561.282	12.5327
10.999	566.836	12.6011
11.00556	568.675	12.6694
11.0112	564.489	12.7378
11.0162	561.125	12.8062
11.0217	562.34	12.8745
11.0277	560.156	12.9429
11.0336	563.9259	13.01123
11.0391	576.786	13.07959
11.0448	588.082	13.1479
11.0517	593.964	13.2163
11.0559	603.071	13.2847
11.0625	605.502	13.353
11.0682	604.567	13.4214
11.0731	600.724	13.4897
11.0789	598.34	13.5581
11.08401	595.469	13.6265
11.0905	597.67	13.6948
11.0958	608.499	13.7632
11.1013	616.402	13.8315
11.1074	624.8	13.8999
11.1141	636.414	13.9683
11.1191	640.955	14.0366
11.1246	640.613	14.10498
11.1306	641.905	14.17334
11.1355	636.294	14.2417
11.1417	630.943	14.3101
11.1477	632.266	14.3784
11.1544	640.606	14.4468
11.1583	647.028	14.5151
11.1645	655.206	14.5835
11.171	665.8595	14.6519
11.1759	674.738	14.7202
11.1813	678.605	14.7886
11.1876	678.293	14.8569
11.1928	674.1991	14.9253
11.1977	670.749	14.9937
11.2049	669.937	15.062
11.21	673.469	15.1304
11.2162	676.454	15.19873
11.2219	684.736	15.26709
11.2277	697.359	15.3354
11.2331	705.846	15.4038
11.2379	712.869	15.4722
11.2426	715.508	15.5405
11.2494	712.772	15.6089
11.2558	707.259	15.6772
11.2613	707.398	15.7456
11.2665	706.426	15.814
11.2731	708.083	15.8823
11.278	713.39	15.9507
11.2846	722.769	16.019
11.2896	735.986	16.0874
11.2958	744.353	16.1558
11.3011	747.908	16.2241
11.3062	747.141	16.29248
11.3124	743.665	16.36084
11.3184	745.606	16.4292
11.3236	738.461	16.4976
11.32937	741.43	16.5659
11.3357	743.883	16.6343
11.3412	750.446	16.7026
11.3467	762.5885	16.771
11.3512	771.2865	16.8394
11.359	778.1026	16.9077
11.3642	779.714	16.9761
11.36987	781.986	17.0444
11.3752	779.375	17.1128
11.3812	775.42	17.1812
11.3858	773.321	17.2495
11.3928	774.513	17.3179
11.3979	778.876	17.38623
11.4041	789.587	17.45459
11.4091	798.332	17.5229
11.4148	805.689	17.5913
11.4203	810.269	17.6597
11.4258	815.62	17.728
11.4323	812.561	17.7964
11.4374	810.381	17.8647
11.4443	808.353	17.9331
11.4496	803.788	18.0015
11.45572	807.859	18.0698
11.4606	815.093	18.1382
11.4668	824.3717	18.2065
11.4722	830.789	18.2749
11.4778	838.252	18.3433
11.4835	845.483	18.4116
11.4889	844.352	18.47998
11.4942	842.344	18.54834
11.4999	841.243	18.6167
11.5062	835.488	18.6851
11.51183	836.697	18.7534
11.5184	842.133	18.8218
11.5226	848.922	18.8901
11.5289	854.282	18.9585
11.5344	864.86	19.0269
11.541	874.202	19.0952
11.545	873.036	19.1636
11.55241	874.294	19.2319
11.5577	873.4068	19.3003
11.5625	866.705	19.3687
11.5681	866.484	19.437
11.5747	869.437	19.5054
11.5799	869.998	19.57373
11.58579	876.3891	19.64209
11.5921	888.018	19.7104
11.5972	898.846	19.7788
11.603	901.143	19.8472
[...]
15.2923	1069.23	64.1245
15.2948	1085.68	64.1636
15.2978	1075.4	64.2026
15.3024	1073.24	64.2417
15.3049	1086.772	64.2808
15.3086	1070.25	64.3198
15.3115	1078.038	64.3589
15.3144	1082.94	64.3979
15.3171	1065.62	64.437
15.32068	1085.08	64.4761
15.324	1073.53	64.5151
15.3281	1069.32	64.5542
15.3306	1084.24	64.5933
15.3342	1067.81	64.6323
15.3379	1077.05	64.6714
15.3406	1077.03	64.7104
15.3429	1065.5	64.7495
15.3468	1080.57	64.7886
15.3508	1070.7	64.8276
15.3532	1067.61	64.8667
15.35712	1084.4	64.9058
15.3603	1065.6	64.9448
15.3634	1074.26	64.9839
15.3662	1079.92	65.0229
15.3696	1063.64	65.062
15.3726	1080.44	65.1011
15.3765	1074.24	65.1401
15.3792	1069.15	65.1792
15.38312	1083.5	65.2183
15.3857	1069.998	65.2573
15.3892	1074.845	65.2964
15.3922	1077.99	65.3354
15.3951	1063.626	65.3745
15.3987	1081.59	65.4136
15.4018	1069.5	65.4526
15.4053	1069.15	65.4917
15.4083	1081.44	65.5308
15.4121	1062.11	65.5698
15.4156	1072.68	65.6089
15.4179	1074.05	65.6479
15.4231	1058.91	65.687
15.4249	1073.34	65.7261
15.4352	53.0087	65.7651
15.4356	-44.448	65.8042
15.4383	-28.4943	65.8433
15.4399	-51.74297	65.8823
15.4427	-33.8526	65.9214
15.4455	-37.1345	65.9604
15.4486	-50.6576	65.9995
15.4527	-27.7794	66.0386
15.4549	-44.9244	66.0776
15.4587	-43.50309	66.1167
15.461	-28.42277	66.1558
15.4646	-49.8955	66.1948
15.4682	-36.9339	66.2339
15.4715	-34.5246	66.2729
15.4744	-50.4133	66.312
15.478	-31.8965	66.3511
15.4808	-40.77322	66.3901
15.4833	-42.3479	66.4292
15.4878	-29.3039	66.4683
15.4907	-46.5285	66.5073
15.4937	-35.793	66.5464
15.497	-37.46933	66.5854
15.5002	-47.2068	66.6245
15.5034	-31.6695	66.6636
15.5066	-39.94894	66.7026
15.5101	-44.4498	66.7417
15.5133	-29.9972	66.7808
15.5166	-48.3211	66.8198
15.5204	-38.1035	66.8589
15.5232	-34.7382	66.8979
15.5261	-48.9469	66.937
15.5294	-33.0579	66.9761
15.5329	-44.0701	67.0151
15.536	-43.7431	67.0542
15.5384	-34.0804	67.0933
15.5436	-47.7997	67.1323
15.5453	-38.18679	67.1714
15.5497	-37.8153	67.2104
15.5517	-50.838	67.2495
15.5552	-30.5832	67.2886
15.5592	-42.5749	67.3276
15.56209	-45.5472	67.3667
15.5653	-29.1213	67.4058
15.5692	-48.5627	67.4448
15.571	-37.6258	67.4839
15.5748	-34.0051	67.5229
15.57811	-47.6315	67.562
15.5818	-33.926	67.6011
15.584	-39.0948	67.6401
15.5889	-44.34568	67.6792
15.5912	-30.953	67.7183
15.5939	-45.2001	67.7573
15.5979	-38.6481	67.7964
15.6022	-35.0487	67.8354
15.6043	-49.1027	67.8745
15.608	-31.6394	67.9136
15.6104	-44.6078	67.9526
15.6139	-45.36388	67.9917
15.6182	-33.1175	68.0308
15.6206	-48.5862	68.0698
15.6233	-41.89045	68.1089
15.6276	-36.4029	68.1479
15.6306	-49.1899	68.187
15.6334	-35.9495	68.2261
15.6372	-42.0889	68.2651
15.6398	-46.9312	68.3042
15.6431	-34.4963	68.3433
15.6468	-49.8493	68.3823
15.649	-36.234	68.4214
15.6544	-39.8849	68.4604
15.6565	-48.7742	68.4995
15.6597	-33.1724	68.5386
15.6631	-42.5705	68.5776
15.6667	-44.3458	68.6167
15.6703	-31.1643	68.6558
15.6731	-47.3955	68.6948
15.6752	-39.2985	68.7339
15.6789	-32.6202	68.7729
15.6827	-47.9986	68.812
15.6846	-33.62207	68.8511
15.6887	-40.9083	68.8901
15.6929	-43.0047	68.9292
15.6957	-33.3473	68.9683
15.6981	-45.6325	69.0073
15.7023	-39.114	69.0464
15.7052	-36.7092	69.0854
15.7082	-48.1416	69.1245
15.7122	-33.91671	69.1636
15.7157	-42.5317	69.2026
15.7195	-47.0543	69.2417
15.7221	-31.8103	69.2808
15.7251	-47.2126	69.3198
15.7273	-39.4538	69.3589
15.7309	-37.2146	69.3979
15.734	-46.9085	69.437
15.7379	-36.6259	69.4761
15.7417	-43.2089	69.5151
15.7437	-43.9732	69.5542
15.7477	-34.9918	69.5933
15.7508	-48.5308	69.6323
15.7549	-40.1031	69.6714
15.7584	-35.8127	69.7104
15.7605	-49.2595	69.7495
15.7646	-31.7752	69.7886
15.7683	-45.5407	69.8276
15.7687	-32.835	69.8472