Folder: Stress_Strain_Analysis_Tools/data/processed_data_files/tensile (part 6)

File: 0.254_hd_dimension_typei_4545_r(5).dat
MTS793|BTW|ENU|1|2|.|/|:|1|0|0|A

Data Header:			0.254_hd_dimension_typei_4545_r0			Time:	20.0247	s	4/15/2019 3:18:09 PM
Data Acquisition:	Timed
Station Name:	ft40.cfg
Test File Name:	monotonic_0.2540_typei_hd_4545_dimension.tst
Displacement	Force	Running Time
mm	N	s
9.98137	-163.72	0.0297852
9.98205	-163.82	0.0981445
9.98817	-163.334	0.166504
9.99302	-166.0519	0.234863
9.99999	-165.3223	0.303223
10.0049	-165.7915	0.371582
10.0117	-165.744	0.439941
10.0162	-161.518	0.508301
10.022	-154.378	0.57666
10.0283	-147.301	0.64502
10.03304	-141.867	0.713379
10.0394	-139.4738	0.781738
10.0435	-138.033	0.850098
10.0505	-138.143	0.918457
10.0563	-139.411	0.986816
10.0611	-137.943	1.05518
10.0677	-142.869	1.12354
10.0737	-138.975	1.19189
10.0782	-129.794	1.26025
10.0846	-123.084	1.32861
10.09	-118.55	1.39697
10.0956	-111.235	1.465332
10.102	-109.281	1.53369
10.1079	-110.673	1.60205
10.1136	-107.212	1.67041
10.1193	-109.652	1.73877
10.1239	-113.39	1.80713
10.1287	-112.372	1.87549
10.1354	-102.194	1.94385
10.1415	-97.8694	2.012207
10.1475	-93.6086	2.08057
10.1534	-85.2567	2.14893
10.1593	-80.6309	2.21729
10.164	-80.0237	2.28564
10.1711	-78.52507	2.354
10.1756	-77.4275	2.42236
10.18114	-82.0172	2.49072
10.1859	-83.0647	2.559082
10.1927	-75.0519	2.62744
10.19755	-71.0287	2.6958
10.20457	-65.32991	2.76416
10.2089	-57.8622	2.83252
10.216	-53.2671	2.90088
10.2215	-47.3842	2.96924
10.2272	-44.2181	3.0376
10.2322	-45.6654	3.105957
10.23814	-48.9927	3.17432
10.2436	-49.5182	3.24268
10.249	-45.595	3.31104
10.2549	-42.05	3.37939
10.26102	-37.9049	3.44775
10.2672	-28.7871	3.51611
10.2724	-23.9066	3.58447
10.2791	-17.9846	3.652832
10.2837	-14.56939	3.72119
10.2887	-13.1856	3.78955
10.2944	-16.7334	3.85791
10.3004	-17.2712	3.92627
10.3068	-13.3278	3.99463
10.312	-11.3469	4.06299
10.3177	-6.92252	4.13135
10.32373	-1.32982	4.199707
10.3287	3.77804	4.26807
10.3344	13.7741	4.33643
10.3404	18.86068	4.40479
10.3458	20.4725	4.47314
10.3529	20.03396	4.5415
10.35803	19.8537	4.60986
10.3633	20.6872	4.67822
10.3702	20.3421	4.746582
10.37509	24.73686	4.81494
10.3799	28.4623	4.8833
10.3863	32.7331	4.95166
10.392	42.5045	5.02002
10.39689	50.5781	5.08838
10.4034	52.0375	5.15674
10.4097	50.6482	5.2251
10.4153	55.3282	5.293457
10.42131	54.955	5.36182
10.4262	53.5809	5.43018
10.4323	56.7419	5.49854
10.4384	61.1117	5.56689
10.4422	63.6066	5.63525
10.4488	72.1015	5.70361
10.4558	82.2936	5.77197
10.4595	83.0529	5.840332
10.46539	85.0498	5.90869
10.4727	89.9064	5.97705
10.4763	91.0051	6.04541
10.48233	87.6738	6.11377
10.488	88.2803	6.18213
10.4943	92.5556	6.25049
10.5004	94.8358	6.31885
10.5061	101.817	6.387207
10.51136	110.117	6.45557
10.5174	115.099	6.52393
10.5233	116.361	6.59229
10.528	121.016	6.66064
10.5345	125.444	6.729
10.5397	120.949	6.79736
10.5452	124.275	6.86572
10.5501	125.423	6.934082
10.5566	127.226	7.00244
10.5632	133.3	7.0708
10.5682	139.318	7.13916
10.5749	145.187	7.20752
10.5797	148.453	7.27588
10.5856	155.0051	7.34424
10.5907	158.795	7.4126
10.59659	157.373	7.480957
10.6036	155.484	7.54932
10.608	157.687	7.61768
10.6141	158.198	7.68604
10.6189	161.936	7.75439
10.6252	168.44	7.82275
10.6303	174.756	7.89111
10.6372	178.946	7.95947
10.6426	186.803	8.027832
10.6485	191.549	8.09619
10.6543	192.213	8.16455
10.6597	192.711	8.23291
10.66521	191.493	8.30127
10.6703	190.814	8.36963
10.67675	195.783	8.43799
10.6828	198.249	8.50635
10.6887	202.59	8.574707
10.6948	208.844	8.64307
10.699	218.214	8.71143
10.7058	222.994	8.77979
10.7103	226.043	8.84814
10.71652	226.362	8.9165
10.7216	226.984	8.98486
10.728	224.105	9.05322
10.7332	229.303	9.121582
10.7399	229.872	9.18994
10.7451	231.202	9.2583
10.7518	239.0835	9.32666
10.75645	250.108	9.39502
10.7615	253.956	9.46338
10.7677	257.583	9.53174
10.7728	260.42	9.6001
10.7788	260.612	9.668457
10.7837	257.699	9.73682
10.79	260.347	9.80518
10.7961	260.898	9.87354
10.8022	260.004	9.94189
10.8083	267.929	10.0103
10.8128	278.349	10.0786
10.8183	283.341	10.147
10.8247	289.432	10.2153
10.831	295.432	10.2837
10.8363	294.853	10.3521
10.8408	295.901	10.42041
10.8475	295.331	10.48877
10.8524	294.469	10.5571
10.8595	292.223	10.6255
10.8651	295.279	10.6938
10.87062	307.342	10.7622
10.876	310.817	10.8306
10.8819	318.002	10.8989
10.8875	325.817	10.9673
10.8922	329.1304	11.0356
10.8988	330.584	11.104
10.9042	327.685	11.1724
10.9106	326.867	11.2407
10.9162	323.9252	11.3091
10.9218	326.408	11.3774
10.9267	335.523	11.4458
10.9329	340.4	11.51416
10.9383	347.332	11.58252
10.9454	355.889	11.6509
10.9505	360.043	11.7192
10.9561	363.901	11.7876
10.96068	362.802	11.856
10.9661	361.043	11.9243
10.9734	355.904	11.9927
10.9786	355.708	12.061
10.9839	364.322	12.1294
10.9899	367.712	12.1978
10.9956	375.601	12.2661
11.0007	383.925	12.3345
11.006	387.893	12.4028
11.012	393.399	12.4712
11.0187	394.164	12.5396
11.0238	393.127	12.60791
11.0295	389.262	12.67627
11.0351	387.596	12.7446
11.0408	393.72	12.813
11.046	394.3031	12.8813
11.0526	402.561	12.9497
11.0575	412.084	13.0181
11.0647	415.326	13.0864
11.0702	422.772	13.1548
11.0746	425.16	13.2231
11.0808	424.513	13.2915
11.0865	421.138	13.3599
11.0914	420.218	13.4282
11.09761	424.201	13.4966
11.104	424.825	13.5649
11.1098	429.014	13.6333
11.1155	437.227	13.70166
11.121	443.522	13.77002
11.1267	451.37	13.8384
11.1322	457.15	13.9067
11.1384	455.969	13.9751
11.1437	454.2616	14.0435
11.14972	455.8	14.1118
11.1551	455.238	14.1802
11.161	453.762	14.2485
11.1664	458.449	14.3169
11.1722	464.546	14.3853
11.178	470.1362	14.4536
11.183	479.209	14.522
11.1889	485.59	14.5903
11.1949	484.8418	14.6587
11.20107	484.973	14.7271
11.20625	488.456	14.79541
11.21151	487.427	14.86377
11.2174	483.029	14.9321
11.2233	487.006	15.0005
11.22924	491.174	15.0688
11.2349	495.83	15.1372
11.2413	504.2348	15.2056
11.2461	511.862	15.2739
11.2513	514.4129	15.3423
11.25806	514.779	15.4106
11.263	519.649	15.479
11.2687	517.74	15.5474
11.2737	513.942	15.6157
11.2814	515.599	15.6841
11.2854	518.631	15.7524
11.2914	523.349	15.8208
11.2968	529.602	15.88916
11.3032	538.278	15.95752
11.3089	542.072	16.0259
11.3153	543.9436	16.0942
11.3202	547.468	16.1626
11.3262	548.4314	16.231
11.33135	546.728	16.2993
11.3381	545.454	16.3677
11.3437	547.012	16.436
11.3479	548.917	16.5044
11.35421	554.999	16.5728
11.3603	562.385	16.6411
11.3656	565.571	16.7095
11.3722	570.906	16.7778
11.3771	579.233	16.8462
11.3818	577.778	16.9146
11.38721	577.408	16.98291
11.3946	575.591	17.05127
11.4001	573.54	17.1196
11.40543	576.538	17.188
11.4113	580.193	17.2563
11.418	583.98	17.3247
11.4233	591.51	17.3931
11.4276	597.2547	17.4614
11.4334	605.3266	17.5298
11.4401	605.606	17.5981
11.4452	606.169	17.6665
11.45152	605.7926	17.7349
11.45728	600.418	17.8032
11.4625	602.965	17.8716
11.46827	605.225	17.9399
11.4737	608.974	18.0083
11.4807	613.0838	18.07666
11.4855	621.575	18.14502
11.49209	629.763	18.2134
11.496	631.187	18.2817
11.5029	633.5564	18.3501
11.5087	634.822	18.4185
11.5129	629.851	18.4868
11.52	629.149	18.5552
11.5253	631.259	18.6235
11.5304	633.768	18.6919
11.5368	634.82	18.7603
11.5431	644.2442	18.8286
11.5477	654.2569	18.897
11.5537	656.341	18.9653
11.5593	658.653	19.0337
11.5655	661.784	19.1021
11.5714	657.353	19.17041
11.57631	656.723	19.23877
11.5826	656.253	19.3071
11.5884	657.302	19.3755
11.5943	659.156	19.4438
11.5983	664.619	19.5122
11.6053	677.146	19.5806
11.6107	679.902	19.6489
11.6171	681.746	19.7173
11.6219	687.8313	19.7856
[...]
15.3626	938.23	64.6685
15.3668	945.227	64.7173
15.3705	935.096	64.7661
15.3749	926.658	64.8149
15.3796	929.1236	64.86377
15.3823	941.775	64.9126
15.3866	941.955	64.9614
15.3908	929.781	65.0103
15.3941	928.149	65.0591
15.3985	934.612	65.10791
15.4035	941.254	65.1567
15.4065	936.83	65.2056
15.4104	926.844	65.2544
15.4152	929.814	65.3032
15.4198	943.894	65.3521
15.423	943.768	65.4009
15.42755	931.153	65.4497
15.432	924.985	65.4985
15.4351	934.633	65.5474
15.4397	942.688	65.5962
15.4439	940.179	65.64502
15.44826	929.546	65.6938
15.452	929.16	65.7427
15.4555	939.077	65.7915
15.4604	940.638	65.8403
15.4645	933.745	65.88916
15.4679	926.1673	65.938
15.4719	932.601	65.9868
15.47622	941.748	66.0356
15.4798	940.167	66.0845
15.4845	927.499	66.1333
15.4878	925.935	66.1821
15.4931	936.019	66.231
15.4961	943.288	66.2798
15.4999	935.624	66.3286
15.5045	927.574	66.3774
15.509	931.5	66.42627
15.5134	939.518	66.4751
15.5171	939.002	66.5239
15.521	930.689	66.5728
15.52495	924.651	66.6216
15.5302	933.115	66.67041
15.53203	941.298	66.7192
15.53815	936.617	66.7681
15.5421	925.471	66.8169
15.5448	925.473	66.8657
15.5494	937.8634	66.9146
15.5534	940.943	66.9634
15.5573	932.569	67.0122
15.5608	927.664	67.061
15.5658	933.255	67.1099
15.5698	941.061	67.1587
15.5741	938.547	67.20752
15.5782	927.136	67.2563
15.5812	927.352	67.3052
15.5855	935.264	67.354
15.58908	940.71	67.4028
15.5946	932.491	67.45166
15.5982	922.163	67.5005
15.60215	927.547	67.5493
15.60758	936.991	67.5981
15.6104	938.295	67.647
15.6145	930.187	67.6958
15.6178	928.594	67.7446
15.6229	937.398	67.7935
15.6267	940.796	67.8423
15.6308	935.452	67.8911
15.6341	927.79	67.9399
15.639	928.89	67.98877
15.6431	938.055	68.0376
15.6464	940.673	68.0864
15.6496	929.138	68.1353
15.6554	923.396	68.1841
15.6598	930.47	68.23291
15.6624	936.6275	68.2817
15.6675	934.969	68.3306
15.6712	927.306	68.3794
15.6757	927.769	68.4282
15.6796	936.358	68.4771
15.6839	938.011	68.5259
15.68755	931.277	68.5747
15.6914	926.8089	68.6235
15.6961	931.107	68.6724
15.6999	939.267	68.7212
15.7047	937.742	68.77002
15.7079	928.576	68.8188
15.7124	924.368	68.8677
15.7159	931.736	68.9165
15.7208	935.416	68.9653
15.7245	928.381	69.01416
15.7295	923.3728	69.063
15.7321	928.818	69.1118
15.7364	937.625	69.1606
15.7411	932.684	69.2095
15.7444	924.7373	69.2583
15.7488	924.151	69.3071
15.7525	930.356	69.356
15.7566	934.811	69.4048
15.766	-234.441	69.4536
15.7683	-48.60709	69.5024
15.7698	-47.1062	69.55127
15.7751	-38.0477	69.6001
15.7774	-38.8465	69.6489
15.78179	-46.113	69.6978
15.78586	-50.9463	69.7466
15.7905	-41.9955	69.79541
15.7948	-34.8324	69.8442
15.797	-42.1741	69.8931
15.8014	-50.9946	69.9419
15.8062	-48.7834	69.9907
15.8104	-37.1667	70.0396
15.8149	-36.2829	70.0884
15.819	-45.326	70.1372
15.8221	-49.3324	70.186
15.8265	-45.0884	70.2349
15.83	-38.6419	70.2837
15.8351	-42.5366	70.33252
15.8385	-48.2906	70.3813
15.8424	-47.2078	70.4302
15.8474	-37.3247	70.479
15.8513	-35.9114	70.5278
15.8548	-45.6178	70.57666
15.85828	-50.0768	70.6255
15.8632	-46.11908	70.6743
15.8661	-38.0434	70.7231
15.8704	-39.0322	70.772
15.8745	-49.1518	70.8208
15.8792	-48.3849	70.8696
15.8825	-40.4015	70.9185
15.8874	-38.9932	70.9673
15.8922	-44.499	71.0161
15.8953	-51.4966	71.0649
15.8989	-44.387	71.11377
15.9047	-35.12291	71.1626
15.9078	-36.5684	71.2114
15.9116	-47.73922	71.2603
15.9166	-50.0535	71.3091
15.9203	-42.596	71.35791
15.9235	-38.0749	71.4067
15.9283	-42.8998	71.4556
15.9323	-49.7034	71.5044
15.9362	-47.7787	71.5532
15.9395	-40.4116	71.6021
15.94408	-41.56448	71.6509
15.9488	-48.07653	71.6997
15.9527	-52.5767	71.7485
15.95634	-42.2542	71.7974
15.9606	-36.555	71.8462
15.964	-39.2253	71.89502
15.9683	-54.5785	71.9341

File: 0.254_hd_dimension_typei_4545_r(6).dat
MTS793|BTW|ENU|1|2|.|/|:|1|0|0|A

Data Header:			0.254_hd_dimension_typei_4545_r0			Time:	20.0205	s	4/15/2019 3:20:39 PM
Data Acquisition:	Timed
Station Name:	ft40.cfg
Test File Name:	monotonic_0.2540_typei_hd_4545_dimension.tst
Displacement	Force	Running Time
mm	N	s
9.98139	-173.083	0.0229492
9.98428	-171.79	0.0913086
9.98965	-168.839	0.159668
9.99438	-168.094	0.228027
10.0018	-167.551	0.296387
10.0076	-160.701	0.364746
10.0127	-151.68	0.433105
10.0177	-148.416	0.501465
10.0239	-145.464	0.569824
10.029	-142.289	0.638184
10.0347	-145.13	0.706543
10.041	-144.462	0.774902
10.0467	-142.53	0.843262
10.0526	-141.052	0.911621
10.0581	-142.109	0.97998
10.0638	-136.424	1.04834
10.0691	-124.005	1.1167
10.0751	-123.274	1.18506
10.08054	-119.594	1.253418
10.0873	-110.967	1.32178
10.0915	-112.699	1.39014
10.09833	-113.457	1.4585
10.1032	-111.636	1.52686
10.1095	-111.045	1.59521
10.1139	-115.244	1.66357
10.119	-107.851	1.73193
10.1262	-99.1202	1.800293
10.1321	-96.0486	1.86865
10.1378	-89.8745	1.93701
10.1439	-82.796	2.00537
10.1482	-81.4515	2.07373
10.1537	-80.3774	2.14209
10.1598	-78.6679	2.21045
10.1668	-81.0744	2.27881
10.1715	-83.7982	2.347168
10.1769	-77.9494	2.41553
10.1828	-69.3955	2.48389
10.1879	-65.716	2.55225
10.1945	-61.5618	2.62061
10.1999	-53.0052	2.68896
10.2061	-51.3085	2.75732
10.2105	-48.3608	2.82568
10.21741	-48.3581	2.894043
10.2227	-48.5823	2.9624
10.2294	-48.8906	3.03076
10.2345	-46.4157	3.09912
10.2394	-42.0069	3.16748
10.2451	-39.2146	3.23584
10.2516	-31.7112	3.3042
10.2563	-23.9299	3.37256
10.2632	-20.1632	3.440918
10.2685	-16.477	3.50928
10.274	-13.0378	3.57764
10.28036	-16.1981	3.646
10.2852	-16.7206	3.71436
10.2907	-14.84	3.78271
10.2964	-10.5503	3.85107
10.3024	-7.11758	3.91943
10.3073	-3.378346	3.987793
10.3127	4.24312	4.05615
10.3198	11.3324	4.12451
10.3252	17.9074	4.19287
10.3313	18.4229	4.26123
10.3364	18.3796	4.32959
10.3424	18.6613	4.39795
10.3477	20.9511	4.46631
10.353	20.6886	4.534668
10.3591	21.8437	4.60303
10.3645	28.6819	4.67139
10.3706	32.864	4.73975
10.3759	42.8036	4.80811
10.382	49.5458	4.87646
10.3876	50.8618	4.94482
10.3938	51.6438	5.01318
10.3981	52.9951	5.081543
10.4049	55.9881	5.1499
10.40984	52.9748	5.21826
10.4159	55.6989	5.28662
10.4227	61.3472	5.35498
10.4269	64.2054	5.42334
10.43357	73.3963	5.4917
10.4396	81.0449	5.56006
10.4447	83.9049	5.628418
10.4511	83.178	5.69678
10.4558	88.3697	5.76514
10.4617	90.6231	5.8335
10.4676	87.2683	5.90186
10.4746	88.5424	5.97021
10.4794	93.6538	6.03857
10.4844	95.8974	6.10693
10.4901	101.8653	6.175293
10.4951	110.826	6.24365
10.5015	115.569	6.31201
10.508	116.433	6.38037
10.5124	123.266	6.44873
10.5191	125.947	6.51709
10.5245	122.507	6.58545
10.5301	122.621	6.65381
10.5363	126.415	6.722168
10.54177	127.1488	6.79053
10.5476	132.304	6.85889
10.5532	140.5882	6.92725
10.5585	146.97	6.99561
10.5642	146.614	7.06396
10.57	154.885	7.13232
10.5762	158.297	7.20068
10.58173	157.62	7.269043
10.5873	156.048	7.3374
10.5923	158.236	7.40576
10.5986	160.797	7.47412
10.6042	165.871	7.54248
10.6104	169.178	7.61084
10.6159	173.869	7.6792
10.6209	178.259	7.74756
10.6273	186.32	7.815918
10.6326	190.789	7.88428
10.638	190.747	7.95264
10.6439	191.079	8.021
10.65	190.687	8.08936
10.6557	192.734	8.15771
10.6607	197.086	8.22607
10.66661	199.265	8.29443
10.6724	202.632	8.362793
10.6786	209.462	8.43115
10.6835	218.435	8.49951
10.6897	222.353	8.56787
10.6953	223.2547	8.63623
10.7006	226.007	8.70459
10.70729	222.914	8.77295
10.7136	228.13	8.84131
10.7183	228.795	8.909668
10.7235	230.667	8.97803
10.7295	233.833	9.04639
10.7343	239.381	9.11475
10.742	248.5047	9.18311
10.7456	253.973	9.25146
10.7529	257.251	9.31982
10.7588	261.4415	9.38818
10.76386	257.518	9.456543
10.7692	261.302	9.5249
10.7741	261.943	9.59326
10.7808	261.074	9.66162
10.7864	262.722	9.72998
10.7922	270.435	9.79834
10.797	278.645	9.8667
10.8032	281.972	9.93506
10.8088	288.964	10.0034
10.8151	294.362	10.0718
10.8198	292.921	10.1401
10.8267	295.4	10.2085
10.8312	295.1528	10.2769
10.8384	292.202	10.3452
10.84258	292.288	10.4136
10.8489	299.6459	10.4819
10.8546	305.908	10.5503
10.8609	310.716	10.6187
10.8654	318.681	10.687
10.8711	324.8	10.7554
10.87771	325.006	10.82373
10.88205	328.155	10.89209
10.8901	329.243	10.9604
10.8952	325.3476	11.0288
10.8998	323.219	11.0972
10.9063	329.669	11.1655
10.9116	334.295	11.2339
10.9176	337.1207	11.3022
10.92314	346.234	11.3706
10.9294	352.802	11.439
10.9344	357.891	11.5073
10.9407	361.589	11.5757
10.9451	363.961	11.644
10.9515	359.451	11.7124
10.9573	356.218	11.7808
10.96268	361.648	11.8491
10.9683	362.895	11.91748
10.9745	367.083	11.98584
10.98	374.664	12.0542
10.9864	383.731	12.1226
10.9912	389.249	12.1909
10.9968	392.618	12.2593
11.00284	394.3497	12.3276
11.0085	392.154	12.396
11.0142	389.961	12.4644
11.02	391.802	12.5327
11.0253	393.033	12.6011
11.0309	395.068	12.6694
11.0372	402.258	12.7378
11.0422	409.275	12.8062
11.0482	417.361	12.8745
11.0549	422.5462	12.9429
11.0595	423.792	13.01123
11.0655	422.693	13.07959
11.07221	421.239	13.1479
11.0776	423.178	13.2163
11.08188	423.125	13.2847
11.0879	425.834	13.353
11.0936	429.95	13.4214
11.1	435.912	13.4897
11.105	445.117	13.5581
11.1114	451.143	13.6265
11.1168	453.485	13.6948
11.1218	452.541	13.7632
11.1279	455.208	13.8315
11.1342	454.4736	13.8999
11.1398	452.697	13.9683
11.1455	454.373	14.0366
11.1511	457.916	14.10498
11.1568	461.242	14.17334
11.162	470.508	14.2417
11.1675	479.186	14.3101
11.1738	481.294	14.3784
11.179	483.339	14.4468
11.1849	488.426	14.5151
11.191	485.247	14.5835
11.197	483.273	14.6519
11.2024	484.425	14.7202
11.2074	485.969	14.7886
11.2133	488.714	14.8569
11.2183	496.429	14.9253
11.2257	506.045	14.9937
11.2299	506.297	15.062
11.2368	510.631	15.1304
11.24231	517.07	15.19873
11.2476	519.088	15.26709
11.2536	512.582	15.3354
11.25858	514.798	15.4038
11.2641	515.898	15.4722
11.2696	516.196	15.5405
11.276	522.633	15.6089
11.2813	529.882	15.6772
11.2874	532.632	15.7456
11.2931	538.227	15.814
11.2991	546.149	15.8823
11.3049	546.019	15.9507
11.3102	545.4339	16.019
11.3149	543.895	16.0874
11.3219	543.941	16.1558
11.3269	545.21	16.2241
11.3332	547.318	16.29248
11.3384	553.792	16.36084
11.3435	557.7	16.4292
11.35	563.143	16.4976
11.3557	571.108	16.5659
11.3613	575.025	16.6343
11.3678	573.541	16.7026
11.373	574.581	16.771
11.3784	572.4491	16.8394
11.3852	572.922	16.9077
11.3908	574.977	16.9761
11.3948	579.952	17.0444
11.4023	580.314	17.1128
11.4078	588.475	17.1812
11.413	595.923	17.2495
11.4183	600.368	17.3179
11.4237	602.815	17.38623
11.4298	604.044	17.45459
11.4351	601.196	17.5229
11.44122	601.548	17.5913
11.4479	602.481	17.6597
11.4525	603.841	17.728
11.4575	606.271	17.7964
11.464	612.67	17.8647
11.4697	620.123	17.9331
11.4758	623.633	18.0015
11.4809	629.607	18.0698
11.4864	630.158	18.1382
11.4926	629.598	18.2065
11.4985	630.523	18.2749
11.5043	629.77	18.3433
11.5091	627.827	18.4116
11.5164	628.305	18.47998
11.5215	638.4942	18.54834
11.5264	644.65	18.6167
11.5325	647.371	18.6851
11.5376	654.161	18.7534
11.54272	656.989	18.8218
11.5497	657.125	18.8901
11.5552	657.37	18.9585
11.5603	656.0462	19.0269
11.5667	652.9231	19.0952
11.57202	652.936	19.1636
11.5769	661.518	19.2319
11.582	663.38	19.3003
11.5896	668.405	19.3687
11.5947	678.464	19.437
11.6012	680.95	19.5054
11.6065	684.198	19.57373
11.6129	683.259	19.64209
11.6184	684.72	19.7104
11.6231	677.921	19.7788
11.6305	677.989	19.8472
[...]
14.98101	935.74	60.062
14.9802	929.453	60.0815
14.9835	919.368	60.1011
14.9855	929.5993	60.1206
14.9872	933.035	60.1401
14.9888	920.003	60.1597
14.9902	927.266	60.1792
14.9922	930.206	60.19873
14.9936	922.455	60.2183
14.9948	925.751	60.2378
14.9973	935.357	60.2573
14.9978	923.781	60.2769
14.9994	924.93	60.2964
15.0015	931.694	60.3159
15.003	927.831	60.3354
15.0033	919.22	60.35498
15.0059	931.652	60.3745
15.0083	930.499	60.394
15.0103	921.496	60.4136
15.0125	926.029	60.4331
15.0125	933.63	60.4526
15.0148	920.061	60.4722
15.0157	926.509	60.4917
15.0178	935.185	60.51123
15.0197	921.861	60.5308
15.0206	921.014	60.5503
15.0227	934.8092	60.5698
15.0248	923.016	60.5894
15.0254	919.544	60.6089
15.0273	933.145	60.6284
15.0288	926.182	60.6479
15.0313	919.839	60.66748
15.03182	931.128	60.687
15.0332	927.774	60.7065
15.0363	916.874	60.7261
15.0378	931.068	60.7456
15.0389	929.838	60.7651
15.0407	918.64	60.7847
15.0423	924.713	60.8042
15.0436	932.308	60.82373
15.04539	921.089	60.8433
15.0472	923.807	60.8628
15.048	928.8075	60.8823
15.0509	923.448	60.9019
15.0512	918.922	60.9214
15.0528	932.197	60.9409
15.0552	924.85	60.9604
15.056	918.392	60.97998
15.0581	926.73	60.9995
15.0598	928.011	61.019
15.0623	916.484	61.0386
15.0624	927.783	61.0581
15.0642	928.901	61.0776
15.0664	920.254	61.0972
15.0682	921.695	61.1167
15.0703	929.315	61.13623
15.0713	915.59	61.1558
15.0732	921.262	61.1753
15.0747	932.521	61.1948
15.0762	920.389	61.2144
15.0776	914.271	61.2339
15.08005	930.322	61.2534
15.0806	921.409	61.2729
15.0829	916.073	61.29248
15.085	927.041	61.312
15.0854	922.2995	61.3315
15.08739	913.381	61.3511
15.0901	924.023	61.3706
15.0904	925.097	61.3901
15.0923	910.924	61.4097
15.0945	921.165	61.4292
15.0948	924.429	61.44873
15.0967	914.806	61.4683
15.09926	911.153	61.4878
15.1096	-9.55807	61.5073
15.1089	-45.5951	61.5269
15.10814	-46.8507	61.5464
15.1074	-42.4597	61.5659
15.1098	-46.6116	61.5854
15.1104	-51.9592	61.60498
15.1113	-36.6773	61.6245
15.11444	-40.2157	61.644
15.1151	-49.1814	61.6636
15.1166	-43.1521	61.6831
15.1173	-36.56287	61.7026
15.1203	-52.3129	61.7222
15.1203	-43.6833	61.7417
15.1232	-35.4696	61.76123
15.1234	-46.9462	61.7808
15.1268	-46.5364	61.8003
15.1272	-33.8909	61.8198
15.1295	-48.5072	61.8394
15.1303	-50.4168	61.8589
15.1317	-34.2748	61.8784
15.134	-42.8806	61.8979
15.1355	-53.4928	61.91748
15.137	-36.7455	61.937
15.1387	-41.069	61.9565
15.1397	-51.3518	61.9761
15.1415	-38.96468	61.9956
15.1428	-40.2313	62.0151
15.1461	-51.6528	62.0347
15.1463	-43.6906	62.0542
15.1483	-36.6167	62.07373
15.1509	-50.1435	62.0933
15.1528	-45.4856	62.1128
15.1541	-37.8651	62.1323
15.1551	-44.7867	62.1519
15.1567	-48.92	62.1714
15.1588	-38.1029	62.1909
15.16	-45.0427	62.2104
15.16071	-47.2647	62.22998
15.1621	-40.41357	62.2495
15.1645	-39.7433	62.269
15.1661	-52.8011	62.2886
15.1691	-39.2723	62.3081
15.1696	-37.2436	62.3276
15.1698	-48.5829	62.3472
15.172	-45.3008	62.3667
15.1742	-35.6386	62.38623
15.1756	-48.4792	62.4058
15.1776	-44.82262	62.4253
15.1798	-35.995	62.4448
15.1799	-45.4868	62.4644
15.1824	-50.2898	62.4839
15.184	-35.3973	62.5034
15.1855	-44.8454	62.5229
15.18692	-51.1892	62.54248
15.1891	-37.7166	62.562
15.1903	-40.2146	62.5815
15.1916	-51.8092	62.6011
15.193	-40.4855	62.6206
15.1959	-39.8751	62.6401
15.1966	-49.9954	62.6597
15.199	-40.25132	62.6792
15.2003	-37.89653	62.69873
15.2024	-50.4333	62.7183
15.203	-47.3586	62.7378
15.2057	-36.3896	62.7573
15.2069	-45.9358	62.7769
15.2084	-47.16748	62.7964
15.2104	-38.8145	62.8159
15.2121	-42.5092	62.8354
15.2137	-50.3263	62.85498
15.2152	-37.7217	62.8745
15.2171	-41.8377	62.894
15.2179	-49.4467	62.9136
15.2199	-43.7975	62.9331
15.2205	-39.7088	62.9526