Folder: Stress_Strain_Analysis_Tools/data/processed_data_files/tensile (part 4)

File: 0.254_hd_dimension_typei_4545_r(1).dat
MTS793|BTW|ENU|1|2|.|/|:|1|0|0|A

Data Header:			0.254_hd_dimension_typei_4545_r0			Time:	20.0271	s	4/15/2019 3:07:19 PM
Data Acquisition:	Timed
Station Name:	ft40.cfg
Test File Name:	monotonic_0.2540_typei_hd_4545_dimension.tst
Displacement	Force	Running Time
mm	N	s
9.98148	-117.271	0.0305176
9.98249	-120.432	0.098877
9.98767	-120.049	0.167236
9.99337	-114.056	0.2355957
9.99916	-116.148	0.303955
10.00537	-115.987	0.372314
10.01152	-108.3789	0.440674
10.0163	-105.006	0.5090332
10.021	-98.3014	0.577393
10.02757	-91.1992	0.645752
10.0323	-85.84343	0.714111
10.0387	-87.7035	0.7824707
10.0443	-84.5103	0.85083
10.0504	-79.1655	0.919189
10.0571	-80.367	0.987549
10.0631	-81.3508	1.05591
10.068	-75.9361	1.12427
10.073	-72.8094	1.192627
10.0786	-65.7525	1.26099
10.0847	-59.62	1.32935
10.09077	-53.3313	1.39771
10.0951	-52.6032	1.46606
10.1013	-51.4715	1.53442
10.1069	-46.0879	1.60278
10.11363	-45.1127	1.67114
10.1193	-46.2855	1.739502
10.1242	-41.8274	1.80786
10.1304	-38.0326	1.87622
10.1355	-33.5673	1.94458
10.1408	-29.1342	2.01294
10.1469	-23.0198	2.0813
10.1521	-20.183	2.14966
10.15876	-17.5821	2.21802
10.1645	-12.0902	2.286377
10.1688	-12.1898	2.35474
10.176	-11.8358	2.4231
10.18113	-10.0123	2.49146
10.1875	-9.99622	2.55981
10.1934	-1.73888	2.62817
10.1985	1.71715	2.69653
10.2043	7.243187	2.76489
10.2101	12.3055	2.833252
10.2145	17.7437	2.90161
10.2212	22.0887	2.96997
10.2265	23.0678	3.03833
10.2318	22.989	3.10669
10.2384	26.4811	3.17505
10.2442	26.2155	3.24341
10.2491	28.5316	3.31177
10.25471	35.7099	3.380127
10.2615	39.7116	3.44849
10.2659	42.5494	3.51685
10.2726	49.87674	3.58521
10.2774	57.8825	3.65356
10.2837	59.0734	3.72192
10.2905	59.0649	3.79028
10.2949	61.2984	3.85864
10.3001	61.5315	3.927002
10.3066	61.2885	3.99536
10.3127	67.12075	4.06372
10.3176	72.7838	4.13208
10.3228	76.02018	4.20044
10.3289	79.711	4.2688
10.3356	90.7321	4.33716
10.3401	94.1178	4.40552
10.3457	93.6237	4.473877
10.3523	97.8227	4.54224
10.3574	98.1725	4.6106
10.3643	97.8804	4.67896
10.369	100.077	4.74731
10.3756	104.308	4.81567
10.3795	107.043	4.88403
10.3868	111.708	4.95239
10.392	121.3	5.020752
10.3974	128.53	5.08911
10.403	128.392	5.15747
10.4094	130.653	5.22583
10.4152	132.46	5.29419
10.421	131.659	5.36255
10.4268	133.23	5.43091
10.4315	137.2989	5.49927
10.4389	139.598	5.567627
10.44331	142.99	5.63599
10.4491	152.3933	5.70435
10.4542	159.0455	5.77271
10.4605	162.1942	5.84106
10.4657	164.807	5.90942
10.4721	165.449	5.97778
10.4775	167.578	6.04614
10.4835	169.344	6.114502
10.48939	170.38	6.18286
10.49525	171.189	6.25122
10.5	175.791	6.31958
10.50562	184.394	6.38794
10.5111	190.42	6.4563
10.5177	193.669	6.52466
10.5226	200.308	6.59302
10.528	201.293	6.661377
10.5336	201.573	6.72974
10.5408	204.469	6.7981
10.5456	206.217	6.86646
10.55235	203.1936	6.93481
10.557	207.527	7.00317
10.5633	217.2755	7.07153
10.5685	221.192	7.13989
10.5739	226.1985	7.208252
10.5798	233.1541	7.27661
10.5848	235.681	7.34497
10.5912	236.7265	7.41333
10.5963	239.1963	7.48169
10.6021	241.662	7.55005
10.6087	234.211	7.61841
10.6151	238.7081	7.68677
10.6192	249.802	7.755127
10.6251	254.076	7.82349
10.6326	255.734	7.89185
10.6373	263.488	7.96021
10.6421	269.819	8.02856
10.6476	269.4487	8.09692
10.6535	272.828	8.16528
10.6593	275.015	8.23364
10.6647	271.598	8.302002
10.6712	269.821	8.37036
10.6767	277.686	8.43872
10.6822	284.433	8.50708
10.688	287.505	8.57544
10.6946	293.8829	8.6438
10.6992	301.284	8.71216
10.706	303.495	8.78052
10.7106	307.236	8.848877
10.7169	307.956	8.91724
10.722	307.104	8.9856
10.7266	304.731	9.05396
10.7341	308.1683	9.12231
10.7395	316.658	9.19067
10.7459	317.878	9.25903
10.7504	323.805	9.32739
10.7555	331.423	9.395752
10.7617	335.405	9.46411
10.7686	338.9505	9.53247
10.7738	342.534	9.60083
10.7779	338.995	9.66919
10.7852	338.15	9.73755
10.791	339.662	9.80591
10.7964	346.179	9.87427
10.8021	349.08	9.942627
10.8069	354.127	10.011
10.8137	357.602	10.0793
10.8179	366.302	10.1477
10.8249	370.901	10.2161
10.8301	373.937	10.2844
10.8367	373.518	10.3528
10.8423	371.0051	10.4211
10.848	374.446	10.4895
10.854	376.8082	10.5579
10.85932	378.504	10.6262
10.8652	384.497	10.69458
10.87023	390.327	10.7629
10.8766	396.673	10.8313
10.8811	402.738	10.8997
10.8881	409.463	10.968
10.894	406.086	11.0364
10.8989	404.493	11.1047
10.9051	406.954	11.1731
10.9107	408.15	11.2415
10.9159	407.518	11.3098
10.9216	412.854	11.3782
10.9264	419.575	11.4465
10.9329	423.771	11.5149
10.9388	430.081	11.5833
10.94443	436.8374	11.6516
10.9507	440.531	11.72
10.9563	437.986	11.78833
10.9618	441.09	11.8567
10.9674	441.566	11.925
10.9728	438.636	11.9934
10.9787	442.702	12.0618
10.9835	447.492	12.1301
10.9903	451.23	12.1985
10.9953	460.063	12.2668
11.0017	467.19	12.3352
11.0068	469.918	12.4036
11.0121	470.106	12.4719
11.0195	472.968	12.5403
11.0237	475.4967	12.6086
11.02919	471.411	12.677
11.03642	471.642	12.7454
11.0417	477.756	12.8137
11.0461	482.574	12.88208
11.05336	486.79	12.9504
11.0586	495.1413	13.0188
11.0637	499.112	13.0872
11.0704	501.215	13.1555
11.0765	501.782	13.2239
11.0812	506.387	13.2922
11.0876	505.491	13.3606
11.0924	504.406	13.429
11.0975	505.3931	13.4973
11.1038	510.124	13.5657
11.1096	515.0155	13.634
11.1142	521.474	13.7024
11.1215	525.746	13.7708
11.1262	530.456	13.8391
11.1319	534.642	13.9075
11.1377	536.483	13.97583
11.1444	536.865	14.0442
11.1483	537.052	14.1125
11.1562	536.081	14.1809
11.1607	537.04	14.2493
11.1672	542.949	14.3176
11.1731	549.061	14.386
11.1786	552.765	14.4543
11.1834	556.915	14.5227
11.1888	562.459	14.5911
11.1952	566.511	14.6594
11.201	565.11	14.7278
11.2063	565.389	14.7961
11.212	567.172	14.8645
11.2179	565.317	14.9329
11.2245	569.159	15.0012
11.2296	576.341	15.06958
11.2344	577.161	15.1379
11.2415	582.612	15.2063
11.2463	589.243	15.2747
11.2513	595.025	15.343
11.2582	593.259	15.4114
11.2642	594.869	15.4797
11.2699	597.111	15.5481
11.2751	594.195	15.6165
11.2807	595.614	15.6848
11.2871	599.7428	15.7532
11.2922	605.009	15.8215
11.2972	606.504	15.8899
11.3038	615.119	15.9583
11.3087	623.2959	16.0266
11.31425	620.947	16.095
11.32091	623.241	16.16333
11.3249	625.329	16.2317
11.3328	623.501	16.3
11.3361	622.522	16.3684
11.3435	626.848	16.4368
11.3482	630.341	16.5051
11.3529	631.117	16.5735
11.3608	639.751	16.6418
11.3662	649.725	16.7102
11.3709	650.889	16.7786
11.37664	651.225	16.8469
11.3835	654.327	16.9153
11.3884	651.493	16.9836
11.3951	649.574	17.052
11.3997	650.728	17.1204
11.4049	652.914	17.1887
11.41165	655.415	17.25708
11.41752	660.528	17.3254
11.4236	671.925	17.3938
11.429	674.314	17.4622
11.4348	676.581	17.5305
11.4401	681.282	17.5989
11.4468	676.289	17.6672
11.45106	678.546	17.7356
11.4564	679.739	17.804
11.4625	676.819	17.8723
11.4687	677.978	17.9407
11.475	686.052	18.009
11.4796	693.275	18.0774
11.4862	697.0675	18.1458
11.4915	703.016	18.2141
11.4962	705.574	18.2825
11.503	704.679	18.35083
11.5092	706.912	18.4192
11.5144	706.234	18.4875
11.5201	703.799	18.5559
11.5244	702.612	18.6243
11.5312	708.515	18.6926
11.5365	716.477	18.761
11.5422	719.69	18.8293
11.5481	725.931	18.8977
11.5541	728.876	18.9661
11.55923	730.75	19.0344
11.56615	732.603	19.1028
11.57114	732.466	19.1711
11.5762	729.77	19.2395
11.5832	725.8	19.3079
11.5874	732.648	19.3762
11.5936	739.479	19.44458
11.6	744.057	19.5129
11.6049	747.375	19.5813
11.61123	752.7981	19.6497
11.6159	754.173	19.718
11.6225	755.924	19.7864
11.628	756.906	19.8547
[...]
15.2366	954.797	63.1555
15.2399	949.375	63.19458
15.2431	953.22	63.2336
15.2466	954.36	63.2727
15.2493	948.029	63.3118
15.2526	956.023	63.35083
15.2557	954.354	63.3899
15.2586	947.455	63.429
15.262	961.238	63.468
15.2657	949.647	63.50708
15.2689	953.295	63.5461
15.2721	958.875	63.5852
15.2751	948.388	63.6243
15.2789	956.469	63.66333
15.2819	954.175	63.7024
15.2853	951.129	63.7415
15.2877	956.596	63.7805
15.2913	949.905	63.81958
15.2949	952.149	63.8586
15.2982	957.417	63.8977
15.30129	945.13	63.9368
15.3052	954.989	63.97583
15.3082	952.603	64.0149
15.3121	944.566	64.054
15.3141	958.805	64.093
15.3177	946.545	64.13208
15.3209	949.647	64.1711
15.3246	955.785	64.2102
15.3279	944.79	64.2493
15.3308	952.431	64.28833
15.3339	951.739	64.3274
15.3367	948.398	64.3665
15.341	955.836	64.4055
15.3439	947.114	64.44458
15.3461	950.761	64.4836
15.35003	954.056	64.5227
15.35348	942.949	64.5618
15.3566	956.483	64.60083
15.3596	951.009	64.6399
15.3632	946.584	64.679
15.3666	957.218	64.718
15.3692	946.5047	64.75708
15.373	951.691	64.7961
15.3767	957.287	64.8352
15.3804	947.618	64.8743
15.38263	954.629	64.91333
15.3867	955.061	64.9524
15.3888	946.692	64.9915
15.3928	957.407	65.0305
15.395	948.292	65.06958
15.3999	951.095	65.1086
15.4032	957.063	65.1477
15.40548	943.953	65.1868
15.4094	954.732	65.22583
15.4128	949.17	65.2649
15.4159	945.171	65.304
15.4176	957.381	65.343
15.423	943.453	65.38208
15.4257	947.351	65.4211
15.4285	953.111	65.4602
15.4311	943.843	65.4993
15.4349	950.699	65.53833
15.4384	950.798	65.5774
15.4425	943.914	65.6165
15.4444	952.761	65.6555
15.4482	944.5744	65.69458
15.4524	949.964	65.7336
15.4537	952.484	65.7727
15.4574	942.377	65.8118
15.4607	953.9743	65.85083
15.46391	946.691	65.8899
15.4676	945.466	65.929
15.4714	955.314	65.968
15.4741	945.538	66.00708
15.478	947.822	66.0461
15.4799	955.476	66.0852
15.4839	942.957	66.1243
15.4868	952.652	66.16333
15.48938	950.327	66.2024
15.4938	945.17	66.2415
15.4971	956.079	66.2805
15.4997	944.7	66.31958
15.50328	949.279	66.3586
15.5073	951.197	66.3977
15.5102	942.2782	66.4368
15.5127	951.641	66.47583
15.5165	946.889	66.5149
15.5189	940.682	66.554
15.5223	950.833	66.593
15.5252	941.184	66.63208
15.5288	942.823	66.6711
15.5322	948.324	66.7102
15.5421	-3.70313	66.7493
15.5426	-42.7918	66.78833
15.5445	-42.9352	66.8274
15.5466	-47.0285	66.8665
15.5497	-38.191	66.9055
15.5524	-45.5118	66.94458
15.5564	-41.9147	66.9836
15.5584	-39.8168	67.0227
15.5622	-47.3233	67.0618
15.5652	-36.8659	67.10083
15.5691	-42.5998	67.1399
15.5722	-46.0676	67.179
15.5756	-35.7639	67.218
15.5785	-47.428	67.25708
15.5812	-43.2839	67.2961
15.5851	-36.1065	67.3352
15.5881	-48.2291	67.3743
15.5919	-35.3495	67.41333
15.5955	-38.3488	67.4524
15.5989	-44.7832	67.4915
15.5999	-35.7598	67.5305
15.6047	-43.1199	67.56958
15.6077	-41.0573	67.6086
15.6121	-35.6812	67.6477
15.6139	-46.1576	67.6868
15.61729	-36.9053	67.72583
15.6207	-39.6639	67.7649
15.6245	-46.21138	67.804
15.6274	-32.8395	67.843
15.62967	-46.0306	67.88208
15.6332	-41.9801	67.9211
15.6374	-35.707	67.9602
15.6409	-49.3394	67.9993
15.6436	-38.3706	68.03833
15.6468	-41.8412	68.0774
15.6494	-46.5887	68.1165
15.6535	-38.0139	68.1555
15.6567	-45.8588	68.19458
15.65971	-42.4888	68.2336
15.6629	-38.4936	68.2727
15.6665	-47.8681	68.3118
15.6692	-37.30307	68.35083
15.6729	-44.1507	68.3899
15.6761	-46.5914	68.429
15.6793	-34.3136	68.468
15.6827	-47.6933	68.50708
15.68587	-40.8726	68.5461
15.6884	-36.7664	68.5852
15.69345	-47.86525	68.6243
15.696	-39.2364	68.66333
15.6984	-40.3643	68.7024
15.7023	-47.0088	68.7415
15.704	-35.2995	68.7805
15.7082	-43.6612	68.81958
15.7122	-41.44952	68.8586
15.7157	-36.0052	68.8977
15.7158	-39.7218	68.9172

File: 0.254_hd_dimension_typei_4545_r(2).dat
MTS793|BTW|ENU|1|2|.|/|:|1|0|0|A

Data Header:			0.254_hd_dimension_typei_4545_r0			Time:	20.0286	s	4/15/2019 3:09:38 PM
Data Acquisition:	Timed
Station Name:	ft40.cfg
Test File Name:	monotonic_0.2540_typei_hd_4545_dimension.tst
Displacement	Force	Running Time
mm	N	s
9.98131	-129.0585	0.0319824
9.98419	-127.0946	0.1003418
9.99016	-121.497	0.168701
9.99475	-117.708	0.237061
10.0008	-112.642	0.30542
10.0066	-106.563	0.3737793
10.012	-111.318	0.442139
10.0178	-111.075	0.510498
10.0234	-105.913	0.578857
10.02902	-106.716	0.6472168
10.0351	-106.1351	0.715576
10.0404	-100.78	0.783936
10.0463	-92.2158	0.852295
10.0511	-86.9924	0.9206543
10.0588	-82.4262	0.989014
10.0627	-75.35524	1.057373
10.0695	-77.3657	1.12573
10.0739	-79.084	1.19409
10.0809	-74.9156	1.26245
10.0861	-75.667	1.33081
10.0915	-76.1334	1.39917
10.0987	-70.1937	1.46753
10.1027	-64.9894	1.53589
10.1092	-56.7697	1.604248
10.114	-52.1356	1.67261
10.1203	-45.3858	1.74097
10.1258	-45.9688	1.80933
10.1321	-44.0729	1.87769
10.1373	-42.77626	1.94604
10.1435	-41.74995	2.0144
10.148	-42.4366	2.08276
10.1541	-39.76	2.151123
10.1604	-33.7502	2.21948
10.1649	-28.2765	2.28784
10.1719	-21.536	2.3562
10.1771	-17.72591	2.42456
10.1831	-14.2708	2.49292
10.18831	-12.39657	2.56128
10.1949	-8.67671	2.62964
10.2001	-7.57015	2.697998
10.2062	-9.34051	2.76636
10.2107	-7.001318	2.83472
10.2163	-5.60995	2.90308
10.2223	1.26031	2.97144
10.2277	10.258	3.03979
10.2336	15.0791	3.10815
10.2394	17.0419	3.17651
10.2457	20.3746	3.244873
10.2515	28.4225	3.31323
10.2571	25.8467	3.38159
10.2627	24.2835	3.44995
10.2688	27.0465	3.51831
10.2727	26.9675	3.58667
10.2802	31.2013	3.65503
10.28545	38.1371	3.72339
10.2921	46.7536	3.791748
10.2974	49.5944	3.86011
10.3017	52.6462	3.92847
10.3079	61.6822	3.99683
10.3139	58.122	4.06519
10.3203	58.8009	4.13354
10.3248	60.0942	4.2019
10.3316	61.6862	4.27026
10.3361	62.0914	4.338623
10.3425	68.8917	4.40698
10.3492	74.9611	4.47534
10.3544	79.0072	4.5437
10.3584	84.0145	4.61206
10.3648	91.00489	4.68042
10.37	94.7681	4.74878
10.3763	91.3466	4.81714
10.3819	92.8041	4.885498
10.388	95.2208	4.95386
10.393	95.6519	5.02222
10.3993	98.6825	5.09058
10.40453	105.864	5.15894
10.4105	109.447	5.22729
10.4156	114.568	5.29565
10.42176	122.826	5.36401
10.4275	127.451	5.432373
10.4326	125.818	5.50073
10.4391	128.095	5.56909
10.4456	128.126	5.63745
10.45072	130.6162	5.70581
10.4563	132.254	5.77417
10.4609	136.2484	5.84253
10.468	140.54	5.91089
10.4727	145.386	5.979248
10.4791	153.679	6.04761
10.4835	158.994	6.11597
10.49036	160.5173	6.18433
10.4962	162.083	6.25269
10.501	161.318	6.32104
10.5077	162.378	6.3894
10.5136	166.614	6.45776
10.519	167.609	6.526123
10.5244	170.496	6.59448
10.5303	174.457	6.66284
10.5358	185.536	6.7312
10.5422	190.682	6.79956
10.5478	193.599	6.86792
10.5526	196.02	6.93628
10.5603	195.269	7.00464
10.5643	198.575	7.072998
10.5701	199.223	7.14136
10.5755	199.923	7.20972
10.581	200.327	7.27808
10.5873	203.642	7.34644
10.59221	213.748	7.41479
10.598	220.487	7.48315
10.6035	222.516	7.55151
10.6108	228.432	7.619873
10.6155	231.843	7.68823
10.6209	228.416	7.75659
10.627	231.005	7.82495
10.6322	234.5939	7.89331
10.6386	231.721	7.96167
10.6431	235.69	8.03003
10.649	243.531	8.09839
10.6554	249.939	8.166748
10.6613	252.881	8.23511
10.6673	259.762	8.30347
10.6724	264.369	8.37183
10.6787	263.93	8.44019
10.6838	264.922	8.50854
10.6896	267.99	8.5769
10.696	264.701	8.64526
10.7008	263.701	8.713623
10.7062	272.591	8.78198
10.7124	280.405	8.85034
10.718	284.675	8.9187
10.7238	289.0054	8.98706
10.7298	295.091	9.05542
10.7344	297.61	9.12378
10.7406	299.785	9.19214
10.7465	299.778	9.260498
10.7525	298.926	9.32886
10.7587	297.9364	9.39722
10.7646	300.654	9.46558
10.7692	307.694	9.53394
10.7757	313.512	9.60229
10.7809	319.275	9.67065
10.786	324.478	9.73901
10.7927	330.418	9.807373
10.7974	332.167	9.87573
10.8029	331.737	9.94409
10.809	329.668	10.0125
10.8138	328.49	10.0808
10.8198	331.704	10.14917
10.8257	335.746	10.2175
10.8323	341.796	10.2859
10.838	348.208	10.3542
10.8442	354.762	10.4226
10.8487	358.942	10.491
10.8552	364.666	10.5593
10.86066	365.889	10.6277
10.86641	362.869	10.696
10.8719	360.372	10.7644
10.8776	362.997	10.8328
10.8831	365.132	10.9011
10.8892	368.184	10.9695
10.8949	375.785	11.0378
10.90028	384.496	11.1062
10.9061	388.315	11.1746
10.9114	394.969	11.24292
10.91659	398.382	11.3113
10.9226	397.492	11.3796
10.928	391.122	11.448
10.9349	395.887	11.5164
10.94	397.575	11.5847
10.9456	398.159	11.6531
10.9517	403.708	11.7214
10.95792	412.3981	11.7898
10.9627	416.138	11.8582
10.9681	422.974	11.9265
10.9743	428.622	11.9949
10.98	430.386	12.0632
10.9858	423.905	12.1316
10.9917	426.97	12.2
10.9972	428.718	12.2683
11.0021	426.582	12.33667
11.0094	430.318	12.405
11.0136	439.619	12.4734
11.0197	442.887	12.5417
11.0257	451.871	12.6101
11.0308	457.1312	12.6785
11.0367	459.993	12.7468
11.0429	457.719	12.8152
11.04745	457.686	12.8835
11.0551	461.143	12.9519
11.0607	457.784	13.0203
11.066	459.613	13.0886
11.0718	465.354	13.157
11.0766	470.476	13.2253
11.0816	479.756	13.2937
11.0883	484.397	13.3621
11.0938	488.853	13.43042
11.0989	489.656	13.4988
11.1052	489.301	13.5671
11.1112	490.612	13.6355
11.1168	489.258	13.7039
11.1219	490.795	13.7722
11.1275	492.782	13.8406
11.1326	496.2095	13.9089
11.1396	506.336	13.9773
11.1453	512.884	14.0457
11.151	517.284	14.114
11.1559	517.067	14.1824
11.1611	520.303	14.2507
11.1679	523.643	14.3191
11.1732	516.83	14.3875
11.1788	518.919	14.4558
11.18462	519.821	14.52417
11.1911	523.771	14.5925
11.1958	530.354	14.6609
11.2023	539.869	14.7292
11.2071	543.347	14.7976
11.214	544.725	14.866
11.2187	547.421	14.9343
11.224	551.652	15.0027
11.2307	548.619	15.071
11.2359	545.867	15.1394
11.2422	549.321	15.2078
11.2478	549.7417	15.2761
11.2544	555.325	15.3445
11.2596	564.698	15.4128
11.2654	568.992	15.4812
11.2698	568.459	15.5496
11.2759	575.449	15.61792
11.282	582.29	15.6863
11.2871	579.402	15.7546
11.2925	576.523	15.823
11.29944	577.362	15.8914
11.3041	576.365	15.9597
11.31	579.477	16.0281
11.31574	585.546	16.0964
11.322	593.205	16.1648
11.3264	595.7533	16.2332
11.33322	601.146	16.3015
11.3388	606.9021	16.3699
11.3449	606.9325	16.4382
11.3505	602.711	16.5066
11.357	606.048	16.575
11.3612	604.238	16.6433
11.3665	607.767	16.71167
11.3723	609.739	16.78
11.3776	615.683	16.8484
11.3836	618.622	16.9167
11.3897	625.427	16.9851
11.3942	634.16	17.0535
11.4013	634.1344	17.1218
11.407	634.513	17.1902
11.4128	632.24	17.2585
11.41775	631.527	17.3269
11.4233	634.5271	17.3953
11.4303	635.43	17.4636
11.4358	640.364	17.532
11.4411	642.331	17.6003
11.447	648.055	17.6687
11.4532	658.2254	17.7371
11.4581	660.4	17.80542
11.4631	662.284	17.8738
11.4692	661.647	17.9421
11.4753	658.984	18.0105
11.4813	660.739	18.0789
11.4863	661.961	18.1472
11.4917	663.987	18.2156
11.4975	665.51	18.2839
11.5044	671.958	18.3523
11.5097	681.205	18.4207
11.5166	683.6618	18.489
11.5205	687.13	18.5574
11.52714	689.887	18.6257
11.5326	685.482	18.6941
11.53863	688.04	18.7625
11.5439	689.44	18.8308
11.5492	689.1	18.89917
11.5554	687.443	18.9675
11.561	693.078	19.0359
11.5666	703.209	19.1042
11.5713	706.691	19.1726
11.5773	709.548	19.241
11.5832	715.255	19.3093
11.5904	714.386	19.3777
11.596	712.08	19.446
11.6009	714.437	19.5144
11.607	713.051	19.5828
11.6126	710.35	19.6511
11.61731	714.125	19.7195
11.6241	725.662	19.7878
11.6297	729.122	19.8562
11.6343	732.033	19.9246
[...]
15.9229	955.502	71.3796
15.9289	950.981	71.448
15.9339	947.177	71.5164
15.9403	948.796	71.5847
15.9457	946.821	71.6531
15.9521	946.956	71.7214
15.9563	948.596	71.7898
15.9626	959.291	71.8582
15.9688	957.92	71.9265
15.9738	960.5752	71.9949
15.9803	959.991	72.0632
15.9854	951.518	72.1316
15.9905	949.698	72.2
15.9964	948.777	72.2683
16.00309	945.926	72.33667
16.0082	944.062	72.405
16.0143	947.959	72.4734
16.019	955.681	72.5417
16.0256	956.058	72.6101
16.0304	958.098	72.6785
16.0366	960.331	72.7468
16.0423	956.632	72.8152
16.0477	951.588	72.8835
16.0545	950.17	72.9519
16.0586	947.321	73.0203
16.0649	942.175	73.0886
16.0711	945.367	73.157
16.07659	953.214	73.2253
16.0824	954.54	73.2937
16.0883	954.711	73.3621
16.093	959.096	73.43042
16.0988	958.161	73.4988
16.1051	955.6806	73.5671
16.1106	951.399	73.6355
16.1171	948.539	73.7039
16.1214	942.948	73.7722
16.1282	943.084	73.8406
16.1346	947.755	73.9089
16.1388	953.097	73.9773
16.1452	953.51	74.0457
16.1513	957.111	74.114
16.1569	956.978	74.1824
16.16169	957.982	74.2507
16.1677	953.331	74.3191
16.1728	949.628	74.3875
16.1785	945.6958	74.4558
16.1837	941.881	74.52417
16.19035	944.355	74.5925
16.1957	948.3689	74.6609
16.2013	952.155	74.7292
16.2075	956.394	74.7976
16.2143	957.364	74.866
16.2187	956.553	74.9343
16.2237	957.789	75.0027
16.2301	951.041	75.071
16.2362	946.0553	75.1394
16.2416	943.0174	75.2078
16.2479	944.837	75.2761
16.2533	944.241	75.3445
16.2589	949.03	75.4128
16.2641	954.987	75.4812
16.2701	955.526	75.5496
16.2766	957.175	75.61792
16.2819	957.818	75.6863
16.2867	954.522	75.7546
16.2926	946.345	75.823
16.29887	942.658	75.8914
16.3042	945.424	75.9597
16.3092	941.704	76.0281
16.316	942.864	76.0964
16.3213	951.434	76.1648
16.3275	952.961	76.2332
16.3326	955.032	76.3015
16.3384	957.893	76.3699
16.3443	957.699	76.4382
16.3494	950.451	76.5066
16.3553	945.21	76.575
16.36204	946.477	76.6433
16.3665	943.3479	76.71167
16.3734	939.992	76.78
16.3777	945.423	76.8484
16.3844	950.757	76.9167
16.3893	953.64	76.9851
16.3955	956.23	77.0535
16.4019	957.303	77.1218
16.4064	952.097	77.1902
16.4133	945.96	77.2585
16.4181	947.188	77.3269
16.4241	941.865	77.3953
16.4301	937.913	77.4636
16.4356	940.606	77.532
16.4422	944.9776	77.6003
16.4465	949.125	77.6687
16.45223	948.644	77.7371
16.4604	-29.8988	77.80542
16.4651	-35.5395	77.8738
16.47073	-40.2818	77.9421
16.4763	-41.4308	78.0105
16.4829	-45.64016	78.0789
16.48745	-48.7143	78.1472
16.4926	-50.6572	78.2156
16.49889	-47.2007	78.2839
16.505	-41.3253	78.3523
16.5101	-36.4242	78.4207
16.5158	-35.4897	78.489
16.5211	-35.7283	78.5574
16.5262	-36.9495	78.6257
16.5329	-36.9099	78.6941
16.5386	-43.5402	78.7625
16.5445	-48.1284	78.8308
16.55	-48.1105	78.89917
16.5552	-50.1921	78.9675
16.5613	-45.8094	79.0359
16.5672	-40.1883	79.1042
16.5718	-37.0219	79.1726
16.5775	-36.0604	79.241
16.5835	-37.0716	79.3093
16.5895	-35.7095	79.3777
16.5954	-41.3033	79.446
16.6007	-46.9828	79.5144
16.6066	-48.7456	79.5828
16.6125	-49.9737	79.6511
16.61791	-47.7318	79.7195
16.62377	-44.1818	79.7878
16.6291	-38.686	79.8562
16.6352	-39.9484	79.9246
16.6421	-38.1847	79.99292
16.6425	-48.04813	80.0222

Data Header:			0.254_hd_dimension_typei_4545_r0			Time:	80.1609	s	4/15/2019 3:10:38 PM
Data Acquisition:	Timed
Station Name:	ft40.cfg
Test File Name:	monotonic_0.2540_typei_hd_4545_dimension.tst
Displacement	Force	Running Time
mm	N	s
16.6447	-48.1303	80.032
16.6453	-42.51363	80.0417
16.6448	-38.5484	80.0515
16.6457	-34.5444	80.0613
16.6473	-40.49818	80.071
16.6482	-48.3367	80.0808
16.649	-49.7079	80.0906
16.6508	-45.4757	80.1003
16.651	-38.0748	80.1101
16.65144	-35.3689	80.1199
16.6517	-40.1908	80.1296
16.65357	-43.562	80.1394
16.6539	-50.6142	80.14917