Folder: Stress_Strain_Analysis_Tools/data/processed_data_files/tensile (part 16)

File: 0.254_hd_uprint_typei_090_r(4).dat
MTS793|BTW|ENU|1|2|.|/|:|1|0|0|A

Data Header:			0.254_hd_uprint_typei_090_r0			Time:	20.03	s	4/15/2019 3:54:51 PM
Data Acquisition:	Timed
Station Name:	ft40.cfg
Test File Name:	monotonic_0.2540_typei_hd_090_uprint.tst
Displacement	Force	Running Time
mm	N	s
9.98018	-231.33	0.0339355
9.98143	-225.045	0.102295
9.987793	-229.114	0.1706543
9.99285	-229.246	0.239014
9.99805	-227.692	0.307373
10.0037	-228.603	0.375732
10.0108	-226.042	0.4440918
10.0154	-223.917	0.512451
10.0208	-218.044	0.580811
10.0259	-218.622	0.64917
10.0335	-216.695	0.7175293
10.0374	-210.53	0.785889
10.0438	-211.53	0.854248
10.04967	-213.442	0.922607
10.055	-212.5058	0.9909668
10.06063	-212.658	1.05933
10.0664	-211.452	1.12769
10.0728	-208.467	1.19604
10.07883	-202.701	1.2644
10.0831	-201.933	1.33276
10.0893	-198.512	1.401123
10.0954	-192.384	1.46948
10.1007	-191.852	1.53784
10.1064	-191.301	1.6062
10.1121	-192.551	1.67456
10.118	-192.688	1.74292
10.1241	-189.961	1.81128
10.1287	-186.893	1.87964
10.1345	-184.014	1.947998
10.141	-180.945	2.01636
10.146	-176.378	2.08472
10.15225	-167.789	2.15308
10.1578	-166.762	2.22144
10.1639	-163.928	2.28979
10.16789	-164.493	2.35815
10.1755	-166.687	2.42651
10.1807	-163.182	2.494873
10.1866	-160.405	2.56323
10.1919	-159.257	2.63159
10.1967	-157.943	2.69995
10.2027	-149.317	2.76831
10.2081	-142.7	2.83667
10.2139	-141.196	2.90503
10.2213	-137.343	2.97339
10.2261	-134.56	3.041748
10.23201	-136.632	3.11011
10.2374	-134.328	3.17847
10.2429	-131.955	3.24683
10.2495	-133.077	3.31519
10.2547	-130.852	3.38354
10.2598	-123.4625	3.4519
10.2655	-113.653	3.52026
10.2716	-110.979	3.588623
10.2774	-107.697	3.65698
10.2822	-104.009	3.72534
10.2892	-103.723	3.7937
10.2941	-103.575	3.86206
10.3001	-99.9547	3.93042
10.3058	-101.4686	3.99878
10.311	-100.5714	4.06714
10.3173	-92.9956	4.135498
10.3223	-84.3249	4.20386
10.3287	-82.3122	4.27222
10.3338	-75.6841	4.34058
10.3408	-70.3661	4.40894
10.3461	-70.5242	4.47729
10.3507	-71.8166	4.54565
10.35729	-66.9985	4.61401
10.3629	-68.7594	4.682373
10.3676	-69.3712	4.75073
10.3734	-63.2774	4.81909
10.3791	-53.3259	4.88745
10.3856	-50.673	4.95581
10.3911	-44.8247	5.02417
10.3967	-38.7568	5.09253
10.4036	-36.7774	5.16089
10.4081	-37.0187	5.229248
10.4136	-35.121	5.29761
10.42017	-35.9511	5.36597
10.4257	-35.8207	5.43433
10.4311	-31.8507	5.50269
10.4368	-24.3424	5.57104
10.4426	-20.7913	5.6394
10.4483	-15.0143	5.70776
10.4536	-6.949389	5.776123
10.4593	-3.80942	5.84448
10.4657	-0.56274	5.91284
10.4709	0.120582	5.9812
10.4764	-1.49712	6.04956
10.4816	-2.96351	6.11792
10.4879	2.07198	6.18628
10.4928	6.07459	6.25464
10.4986	10.6899	6.322998
10.5046	17.2255	6.39136
10.5114	24.0953	6.45972
10.5159	28.86027	6.52808
10.5212	32.4834	6.59644
10.5283	35.3346	6.66479
10.5327	31.63258	6.73315
10.5385	32.1351	6.80151
10.544	36.20689	6.869873
10.551	40.9814	6.93823
10.55658	44.6693	7.00659
10.5614	51.3639	7.07495
10.56849	56.0537	7.14331
10.5733	62.9663	7.21167
10.5787	67.3674	7.28003
10.5843	71.6751	7.34839
10.5898	64.9839	7.416748
10.5961	68.2217	7.48511
10.6016	72.6029	7.55347
10.6073	75.167	7.62183
10.613	74.6088	7.69019
10.6186	81.0582	7.75854
10.62402	87.8859	7.8269
10.6303	91.577	7.89526
10.6361	99.3827	7.963623
10.6418	102.914	8.03198
10.6476	102.393	8.10034
10.654	103.153	8.1687
10.6589	109.976	8.23706
10.6641	107.358	8.30542
10.6701	109.6913	8.37378
10.6751	115.994	8.44214
10.6817	120.758	8.510498
10.68711	123.452	8.57886
10.6925	130.891	8.64722
10.6995	135.188	8.71558
10.70472	135.7131	8.78394
10.7094	136.83	8.85229
10.7158	144.362	8.92065
10.72096	143.686	8.98901
10.7261	142.416	9.057373
10.7334	146.048	9.12573
10.7385	151.625	9.19409
10.7432	156.429	9.26245
10.7491	163.645	9.33081
10.7555	168.675	9.39917
10.7607	170.3577	9.46753
10.7663	171.193	9.53589
10.7723	177.2603	9.604248
10.7785	177.412	9.67261
10.7837	178.431	9.74097
10.789	181.5899	9.80933
10.7956	182.974	9.87769
10.8024	187.192	9.94604
10.8069	193.965	10.0144
10.8132	198.38	10.0828
10.818	201.827	10.1511
10.824	205.966	10.2195
10.8294	213.84	10.2878
10.8349	213.558	10.3562
10.8414	213.128	10.4246
10.8469	215.624	10.49292
10.8519	215.446	10.5613
10.8579	219.747	10.6296
10.8633	226.33	10.698
10.8701	230.093	10.7664
10.8746	234.102	10.8347
10.8807	239.661	10.9031
10.88638	246.132	10.9714
10.89213	246.644	11.0398
10.8974	249.271	11.1082
10.9027	249.868	11.1765
10.9091	249.974	11.2449
10.9138	251.475	11.3132
10.921	257.6474	11.3816
10.9261	261.108	11.45
10.9328	264.145	11.5183
10.9371	274.284	11.58667
10.94294	280.665	11.655
10.9496	278.867	11.7234
10.9548	283.161	11.7917
10.9606	283.273	11.8601
10.9659	283.047	11.9285
10.97219	284.894	11.9968
10.9785	289.666	12.0652
10.9838	290.428	12.1335
10.989	294.711	12.2019
10.9954	304.512	12.2703
11.0006	312.863	12.3386
11.00586	312.281	12.407
11.0116	317.2446	12.4753
11.018	319.618	12.5437
11.023	317.965	12.6121
11.0283	320.0939	12.68042
11.035	321.946	12.7488
11.0411	323.042	12.8171
11.0468	324.123	12.8855
11.0514	332.868	12.9539
11.0574	341.5791	13.0222
11.06263	344.099	13.0906
11.0681	348.3313	13.1589
11.0754	352.528	13.2273
11.0799	351.836	13.2957
11.0854	352.344	13.364
11.0916	353.895	13.4324
11.0987	354.575	13.5007
11.1033	356.036	13.5691
11.1083	364.546	13.6375
11.1147	372.229	13.7058
11.12	375.644	13.77417
11.1256	381.489	13.8425
11.1319	385.325	13.9109
11.1364	384.895	13.9792
11.1425	385.872	14.0476
11.1484	384.341	14.116
11.1537	383.669	14.1843
11.1596	386.0661	14.2527
11.1652	393.139	14.321
11.1706	400.472	14.3894
11.1774	407.355	14.4578
11.1824	413.222	14.5261
11.1883	413.675	14.5945
11.1941	417.123	14.6628
11.1995	420.0972	14.7312
11.2049	418.857	14.7996
11.2115	414.712	14.86792
11.2161	416.712	14.9363
11.2219	424.3284	15.0046
11.2287	428.009	15.073
11.23407	434.896	15.1414
11.2393	443.138	15.2097
11.24517	445.7453	15.2781
11.2512	448.899	15.3464
11.2569	451.341	15.4148
11.263	450.431	15.4832
11.2684	446.454	15.5515
11.2729	448.419	15.6199
11.2803	456.198	15.6882
11.2855	456.731	15.7566
11.2908	461.968	15.825
11.2966	472.231	15.8933
11.3033	473.597	15.96167
11.308	480.622	16.03
11.3133	482.957	16.0984
11.3187	485.113	16.1667
11.3257	478.116	16.2351
11.3307	479.269	16.3035
11.3366	484.424	16.3718
11.3413	485.422	16.4402
11.34727	491.529	16.5085
11.3534	500.021	16.5769
11.3595	504.248	16.6453
11.3642	507.161	16.7136
11.371	513.261	16.782
11.3757	515.094	16.8503
11.382	511.867	16.9187
11.388	512.819	16.9871
11.3929	518.557	17.05542
11.39906	515.255	17.1238
11.4051	518.757	17.1921
11.4105	526.381	17.2605
11.4165	531.874	17.3289
11.42181	536.681	17.3972
11.4274	541.2522	17.4656
11.4328	543.635	17.5339
11.4387	542.957	17.6023
11.4442	542.109	17.6707
11.4504	547.907	17.739
11.4562	545.7337	17.8074
11.4616	547.528	17.8757
11.4674	552.997	17.9441
11.4724	557.353	18.0125
11.47921	565.218	18.0808
11.4846	568.648	18.14917
11.4909	572.717	18.2175
11.4956	574.12	18.2859
11.50142	576.4505	18.3542
11.5062	575.492	18.4226
11.5123	574.906	18.491
11.5174	576.942	18.5593
11.52372	579.673	18.6277
11.5298	583.439	18.696
11.5356	589.275	18.7644
11.5414	595.856	18.8328
11.547	597.558	18.9011
11.5522	601.682	18.9695
11.5576	604.255	19.0378
11.5642	606.527	19.1062
11.5701	604.773	19.1746
11.5761	604.342	19.24292
11.5808	607.272	19.3113
11.5863	609.748	19.3796
11.5922	615.225	19.448
11.5979	623.028	19.5164
11.6042	624.497	19.5847
11.6093	628.629	19.6531
11.6153	634.9234	19.7214
[...]
12.8722	817.448	34.7996
12.8768	816.435	34.86792
12.883	814.482	34.9363
12.8881	811.654	35.0046
12.8941	813.811	35.073
12.9005	821.4812	35.1414
12.9055	824.529	35.2097
12.9114	823.038	35.2781
12.917	824.469	35.3464
12.9239	822.211	35.4148
12.9289	820.144	35.4832
12.9358	815.956	35.5515
12.9404	814.966	35.6199
12.9454	810.295	35.6882
12.9518	809.708	35.7566
12.9572	815.794	35.825
12.96321	820.519	35.8933
12.9693	821.368	35.96167
12.97379	823.325	36.03
12.9802	823.426	36.0984
12.9856	822.541	36.1667
12.9916	817.671	36.2351
12.9982	814.117	36.3035
13.0022	807.684	36.3718
13.009	807.86	36.4402
13.0141	811.772	36.5085
13.0196	815.453	36.5769
13.0251	816.795	36.6453
13.0304	819.948	36.7136
13.036	821.331	36.782
13.0423	821.302	36.8503
13.0483	818.562	36.9187
13.0544	813.073	36.9871
13.0595	807.185	37.05542
13.0653	807.382	37.1238
13.0704	810.425	37.1921
13.0769	809.786	37.2605
13.0836	815.086	37.3289
13.0886	819.007	37.3972
13.0944	818.794	37.4656
13.0995	817.717	37.5339
13.1042	817.4342	37.6023
13.1106	813.73	37.6707
13.1166	805.921	37.739
13.1225	805.189	37.8074
13.1279	806.931	37.8757
13.13347	805.75	37.9441
13.1396	809.126	38.0125
13.1457	813.366	38.0808
13.1511	812.699	38.14917
13.1563	814.882	38.2175
13.1623	816.598	38.2859
13.16743	810.195	38.3542
13.1729	803.7149	38.4226
13.1803	801.353	38.491
13.1853	802.141	38.5593
13.1908	795.29	38.6277
13.201	-48.5725	38.696
13.2035	-42.7552	38.7644
13.2087	-43.9972	38.8328
13.2136	-41.2683	38.9011
13.21971	-38.1801	38.9695
13.2261	-40.5926	39.0378
13.2324	-48.04047	39.1062
13.2372	-49.395	39.1746
13.2419	-48.2949	39.24292
13.2483	-53.2128	39.3113
13.2535	-52.2316	39.3796
13.2601	-47.0051	39.448
13.2653	-47.7449	39.5164
13.2709	-43.8099	39.5847
13.276	-40.7843	39.6531
13.2825	-41.159	39.7214
13.2888	-46.23111	39.7898
13.2941	-48.4945	39.8582
13.2996	-46.8614	39.9265
13.3054	-50.76302	39.9949
13.3086	-43.56229	40.02417

Data Header:			0.254_hd_uprint_typei_090_r0			Time:	40.64209	s	4/15/2019 3:55:11 PM
Data Acquisition:	Timed
Station Name:	ft40.cfg
Test File Name:	monotonic_0.2540_typei_hd_090_uprint.tst
Displacement	Force	Running Time
mm	N	s
13.30737	-42.94809	40.0339
13.3093	-42.8059	40.0437
13.3105	-47.2992	40.0535
13.3109	-51.0259	40.0632
13.3121	-52.1122	40.073
13.3133	-43.8504	40.0828
13.3129	-40.9934	40.0925
13.3146	-42.1822	40.1023
13.3147	-48.775	40.1121
13.3161	-53.6072	40.1218
13.3166	-50.2318	40.1316
13.31764	-48.39262	40.1414
13.3177	-40.3864	40.1511
13.3196	-42.8466	40.1609
13.3193	-44.6638	40.1707
13.3204	-49.7689	40.18042
13.3207	-55.3205	40.1902
13.3226	-49.31385	40.2
13.3235	-41.969	40.2097
13.3234	-40.42762	40.2195
13.3242	-42.9761	40.2292
13.3256	-52.9048	40.239
13.3268	-50.3092	40.2488
13.3278	-51.1804	40.2585
13.328	-44.3395	40.2683
13.3282	-41.5419	40.2781
13.3298	-44.0178	40.2878
13.33025	-44.0266	40.2976
13.3318	-54.4785	40.3074
13.3312	-50.83279	40.3171
13.3336	-45.0603	40.3269
13.333	-41.607	40.33667
13.33453	-41.1163	40.3464
13.3351	-47.4341	40.3562
13.3357	-49.2627	40.366
13.3372	-51.529	40.3757
13.338	-49.4885	40.3855
13.338	-45.0174	40.3953
13.3393	-42.5716	40.405
13.3403	-41.9846	40.4148
13.3411	-49.72	40.4246
13.3406	-51.0033	40.4343
13.342	-50.4203	40.4441
13.343	-44.6018	40.4539
13.3429	-41.7698	40.4636
13.3441	-43.8957	40.4734
13.3462	-46.8173	40.4832
13.3468	-50.63686	40.49292
13.3472	-49.38731	40.5027
13.3481	-49.5331	40.5125
13.3486	-45.5137	40.5222
13.3503	-40.2556	40.532
13.3508	-44.7469	40.5417
13.35125	-48.258	40.5515
13.3523	-52.4211	40.5613
13.35259	-50.3561	40.571
13.3535	-43.9021	40.5808
13.35505	-45.15921	40.5906
13.3566	-41.8525	40.6003
13.3566	-46.3894	40.6101
13.3565	-49.36935	40.6199
13.3571	-49.0519	40.6296

File: 0.254_hd_uprint_typei_090_r(5).dat
MTS793|BTW|ENU|1|2|.|/|:|1|0|0|A

Data Header:			0.254_hd_uprint_typei_090_r0			Time:	20.0349	s	4/15/2019 3:57:44 PM
Data Acquisition:	Timed
Station Name:	ft40.cfg
Test File Name:	monotonic_0.2540_typei_hd_090_uprint.tst
Displacement	Force	Running Time
mm	N	s
9.97975	-158.958	0.0397949
9.98109	-159.575	0.1081543
9.98743	-157.009	0.176514
9.99285	-152.781	0.244873
9.9993	-151.657	0.313232
10.0046	-151.325	0.3815918
10.0097	-152.469	0.449951
10.0161	-152.3605	0.518311
10.021	-150.642	0.58667
10.0257	-144.729	0.6550293
10.0326	-141.733	0.723389
10.0379	-135.607	0.791748
10.0437	-129.441	0.860107
10.04952	-125.274	0.9284668
10.0542	-124.583	0.996826
10.06076	-120.71	1.06519
10.0668	-122.697	1.13354
10.0722	-124.605	1.2019
10.0782	-122.1082	1.27026
10.0842	-118.05	1.338623
10.089	-114.107	1.40698
10.0954	-108.311	1.47534
10.1006	-102.773	1.5437
10.1065	-98.3148	1.61206
10.1124	-91.8931	1.68042
10.1176	-88.0185	1.74878
10.1243	-90.4517	1.81714
10.1293	-94.0259	1.885498
10.1348	-87.5071	1.95386
10.1405	-85.5391	2.02222
10.1468	-84.9722	2.09058
10.1527	-77.2529	2.15894
10.1582	-70.164	2.22729
10.1634	-67.6045	2.29565
10.1699	-60.49411	2.36401
10.1746	-55.554	2.432373
10.1809	-57.5681	2.50073
10.1858	-58.8744	2.56909
10.1924	-53.7104	2.63745
10.1982	-53.6232	2.70581
10.2032	-52.6559	2.77417
10.2085	-45.9778	2.84253
10.2153	-39.568	2.91089
10.221	-34.7905	2.979248
10.22694	-28.0711	3.04761
10.2308	-23.6782	3.11597
10.2378	-24.943	3.18433
10.2435	-23.4158	3.25269
10.2493	-17.9327	3.32104
10.2554	-18.4471	3.3894
10.2602	-17.24869	3.45776
10.26596	-13.5286	3.526123
10.2716	-7.70473	3.59448
10.278	-3.20288	3.66284
10.2835	4.321372	3.7312
10.2886	10.2482	3.79956
10.2959	9.42104	3.86792
10.2989	14.5933	3.93628
10.3064	17.48175	4.00464
10.3111	14.70562	4.072998
10.3178	16.3077	4.14136
10.32268	19.489	4.20972
10.3282	22.3664	4.27808
10.334	26.1857	4.34644
10.34	36.0101	4.41479
10.3465	40.4942	4.48315
10.3512	43.2986	4.55151
10.3572	51.5469	4.619873
10.364	54.0044	4.68823
10.3693	52.1016	4.75659
10.37431	53.1962	4.82495
10.3794	56.2124	4.89331
10.3858	58.2931	4.96167
10.3913	63.0751	5.03003
10.3969	69.7648	5.09839
10.4033	73.7112	5.166748
10.4096	77.4958	5.23511
10.4137	85.8132	5.30347
10.4192	88.9604	5.37183
10.4253	89.7884	5.44019
10.4313	90.1977	5.50854
10.4361	92.5724	5.5769
10.442	93.5148	5.64526
10.4467	97.1568	5.713623
10.4541	102.489	5.78198
10.4598	106.825	5.85034
10.4658	113.5619	5.9187
10.4717	119.592	5.98706
10.4776	124.264	6.05542
10.4828	128.605	6.12378
10.4884	127.747	6.19214
10.4941	127.9189	6.260498
10.50011	131.104	6.32886
10.5048	133.3363	6.39722
10.5106	134.3385	6.46558
10.5165	138.584	6.53394
10.522	148.287	6.60229
10.5283	152.847	6.67065
10.5331	158.425	6.73901
10.5397	162.57	6.807373
10.5444	163.4277	6.87573
10.5516	164.2851	6.94409
10.5573	166.98	7.01245
10.5626	167.095	7.08081
10.5683	167.772	7.14917
10.57406	171.4632	7.21753
10.579	180.446	7.28589
10.586	183.706	7.354248
10.5914	191.837	7.42261
10.59703	196.597	7.49097
10.60156	197.448	7.55933
10.60796	201.183	7.62769
10.6137	202.187	7.69604
10.6196	201.763	7.7644
10.6257	200.41	7.83276
10.6308	207.053	7.901123
10.6362	214.651	7.96948
10.6424	216.654	8.03784
10.64824	223.483	8.1062
10.6533	229.839	8.17456
10.6587	231.643	8.24292
10.66484	236.591	8.31128
10.6708	239.263	8.37964
10.676	237.451	8.447998
10.6808	235.528	8.51636
10.6875	241.947	8.58472
10.6936	246.607	8.65308
10.699	249.057	8.72144
10.7049	256.202	8.78979
10.71168	263.602	8.85815
10.7161	267.5311	8.92651
10.72087	272.2543	8.994873
10.7272	274.866	9.06323
10.7336	273.355	9.13159
10.7378	271.341	9.19995
10.7448	277.3028	9.26831
10.75	278.777	9.33667
10.7556	282.002	9.40503
10.76117	289.612	9.47339
10.7671	296.67	9.541748
10.7726	301.348	9.61011
10.7774	307.044	9.67847
10.7844	310.516	9.74683
10.7889	308.4906	9.81519
10.7945	309.204	9.88354
10.8016	313.226	9.9519
10.808	311.412	10.0203
10.8127	313.068	10.0886
10.8181	319.631	10.157
10.8244	326.234	10.2253
10.83	333.279	10.2937
10.83543	340.064	10.3621
10.8416	341.736	10.43042
10.8463	342.809	10.4988
10.8533	347.886	10.5671
10.8584	347.33	10.6355
10.864	346.7291	10.7039
10.87	349.101	10.7722
10.8754	352.608	10.8406
10.8813	359.901	10.9089
10.8872	365.082	10.9773
10.8934	371.824	11.0457
10.89877	374.6427	11.114
10.9039	378.973	11.1824
10.9097	382.223	11.2507
10.9155	381.535	11.3191
10.9209	381.542	11.3875
10.9264	381.611	11.4558
10.9304	383.078	11.52417
10.9379	391.338	11.5925
10.9428	397.379	11.6609
10.9497	401.651	11.7292
10.9548	405.729	11.7976
10.9611	411.474	11.866
10.9664	415.133	11.9343
10.9729	414.978	12.0027
10.97758	418.132	12.071
10.9841	416.588	12.1394
10.9884	416.137	12.2078
10.9949	423.11	12.2761
11.0004	427.349	12.3445
11.0067	429.251	12.4128
11.0119	436.035	12.4812
11.0181	445.42	12.5496
11.0228	446.968	12.61792
11.0295	449.109	12.6863
11.0353	452.735	12.7546
11.04005	449.917	12.823
11.046	450.086	12.8914
11.0518	454.643	12.9597
11.0584	458.0481	13.0281
11.0634	460.155	13.0964
11.069	466.6311	13.1648
11.0752	477.755	13.2332
11.081	480.359	13.3015
11.08604	482.8638	13.3699
11.0916	486.706	13.4382
11.0977	483.909	13.5066
11.1023	483.35	13.575
11.1091	487.866	13.6433
11.1139	488.81	13.71167
11.1199	489.547	13.78
11.126	497.546	13.8484
11.131	507.003	13.9167
11.1372	509.073	13.9851
11.1426	514.454	14.0535
11.1491	519.446	14.1218
11.1537	517.342	14.1902
11.1611	517.525	14.2585
11.1662	519.809	14.3269
11.1712	518.24	14.3953
11.1777	516.505	14.4636
11.18234	527.279	14.532
11.1878	534.235	14.6003
11.1947	537.8858	14.6687
11.20118	543.65	14.7371
11.2061	548.9422	14.80542
11.2118	549.569	14.8738
11.21781	550.976	14.9421
11.2233	551.289	15.0105
11.2283	548.694	15.0789
11.2331	548.047	15.1472
11.24	556.466	15.2156
11.246	562.095	15.2839
11.2514	566.065	15.3523
11.2574	573.339	15.4207
11.2625	577.132	15.489
11.269	581.793	15.5574
11.2746	583.046	15.6257
11.2799	582.286	15.6941
11.2851	578.178	15.7625
11.2921	579.745	15.8308
11.2971	585.537	15.89917
11.3029	589.004	15.9675
11.3086	594.752	16.0359
11.3139	600.224	16.1042
11.32	604.749	16.1726
11.3262	610.491	16.241
11.3317	613.407	16.3093
11.3385	611.13	16.3777
11.34242	610.198	16.446
11.3481	610.859	16.5144
11.3539	613.875	16.5828
11.3604	615.28	16.6511
11.365	621.562	16.7195
11.3706	627.5722	16.7878
11.3762	632.5592	16.8562
11.382	640.953	16.9246
11.3885	643.203	16.99292
11.3938	642.474	17.0613
11.3988	641.398	17.1296
11.4046	643.16	17.198
11.4109	643.874	17.2664
11.4165	644.6889	17.3347
11.4224	649.831	17.4031
11.42736	652.679	17.4714
11.4331	660.873	17.5398
11.4391	666.684	17.6082
11.4447	668.174	17.6765
11.4502	669.464	17.7449
11.4556	672.531	17.8132
11.4621	674.857	17.8816
11.4675	671.24	17.95
11.4742	672.725	18.0183
11.4789	675.936	18.08667
11.4839	676.984	18.155
11.4906	686.683	18.2234
11.497	693.891	18.2917
11.5012	694.804	18.3601
11.5063	696.788	18.4285
11.514	703.747	18.4968
11.5185	705.744	18.5652
11.52562	699.414	18.6335
11.5311	701.839	18.7019
11.5357	702.859	18.7703
11.5417	702.745	18.8386
11.5478	709.998	18.907
11.5537	715.768	18.9753
11.5579	717.46	19.0437
11.5655	722.578	19.1121
11.5711	731.314	19.18042
11.5752	731.81	19.2488
11.58154	730.9931	19.3171
11.5874	731.136	19.3855
11.5929	729.358	19.4539
11.5987	730.733	19.5222
11.6044	735.345	19.5906
11.60944	740.5	19.6589
11.616	742.2428	19.7273
11.621	747.78	19.7957
11.6273	755.606	19.864
11.6329	756.446	19.9324
[...]
12.17884	874.568	26.4851
12.1833	869.628	26.5339
12.1875	866.364	26.5828
12.1914	871.482	26.6316
12.1948	876.107	26.68042
12.1979	872.5368	26.7292
12.2039	867.914	26.7781
12.2082	865.09	26.8269
12.212	871.979	26.8757
12.2156	871.904	26.9246
12.2195	866.052	26.9734
12.2239	864.068	27.0222
12.228	870.24	27.071
12.2322	875.569	27.1199
12.2361	871.166	27.1687
12.2396	864.197	27.2175
12.2444	863.596	27.2664
12.2475	869.975	27.3152
12.2526	872.052	27.364
12.2563	865.574	27.4128
12.25977	862.431	27.46167
12.2646	864.781	27.5105
12.2687	866.88	27.5593
12.2719	864.933	27.6082
12.2774	859.634	27.657
12.2806	860.184	27.7058
12.2838	867.506	27.7546
12.2884	870.897	27.8035
12.2936	863.333	27.8523
12.2965	856.664	27.9011
12.3011	860.463	27.95
12.3049	867.37	27.9988
12.3084	866.223	28.0476
12.3131	858.898	28.0964
12.3175	856.168	28.1453
12.3214	864.05	28.1941
12.3244	863.618	28.24292
12.32945	857.344	28.2917
12.3336	851.397	28.3406
12.3375	856.898	28.3894
12.3414	863.678	28.4382
12.3462	865.559	28.4871
12.3505	858.198	28.5359
12.3531	851.754	28.5847
12.3593	858.466	28.6335
12.36272	863.563	28.6824
12.3661	860.192	28.7312
12.37076	851.892	28.78
12.3743	852.497	28.8289
12.3777	859.893	28.8777
12.3818	861.261	28.9265
12.3865	851.649	28.9753
12.3898	846.116	29.02417
12.3949	853.034	29.073
12.3983	860.352	29.1218
12.4031	860.497	29.1707
12.40745	851.776	29.2195
12.4104	847.733	29.2683
12.4153	855.676	29.3171
12.4174	860.444	29.366
12.4222	855.768	29.4148
12.4272	849.074	29.4636
12.431	850.625	29.5125
12.4354	858.0968	29.5613
12.4397	858.095	29.6101
12.4431	848.248	29.6589
12.4476	842.3631	29.7078
12.4521	850.515	29.7566
12.4563	856.427	29.80542
12.4602	853.015	29.8542
12.4633	846.701	29.9031
12.4674	847.56	29.9519
12.4719	853.889	30.0007
12.4775	857.174	30.0496
12.4806	848.7085	30.0984
12.4842	844.971	30.1472
12.488	847.844	30.196
12.4927	855.038	30.2449
12.4967	852.772	30.2937
12.5001	843.596	30.3425
12.5054	841.9566	30.3914
12.50865	847.053	30.4402
12.513	853.637	30.489
12.5167	848.118	30.5378
12.5214	841.313	30.58667
12.5244	846.646	30.6355
12.52876	851.352	30.6843
12.53356	851.058	30.7332
12.53728	844.398	30.782
12.54089	840.73	30.8308
12.5456	846.837	30.8796
12.5488	851.584	30.9285
12.5533	847.263	30.9773
12.5578	840.92	31.0261
12.5607	838.598	31.075
12.5669	845.726	31.1238
12.569	846.6889	31.1726
12.5725	840.7641	31.2214
12.5773	839.745	31.2703
12.5822	843.502	31.3191
12.5856	847.278	31.36792
12.5899	843.439	31.4167
12.5939	838.158	31.4656
12.5987	837.671	31.5144
12.6026	844.797	31.5632
12.6058	844.037	31.6121
12.6098	837.903	31.6609
12.6147	833.3443	31.7097
12.61813	825.7	31.7585
12.6273	-50.729	31.8074
12.6279	-46.5873	31.8562
12.6312	-53.37674	31.905
12.6356	-48.8492	31.9539
12.6402	-44.53286	32.0027
12.6429	-40.8539	32.0515
12.6487	-47.5795	32.1003
12.6516	-51.9226	32.14917
12.6553	-47.2648	32.198
12.6596	-41.908	32.2468
12.66374	-42.4652	32.2957
12.6676	-49.2592	32.3445
12.6696	-49.0068	32.3933
12.6754	-42.966	32.4421
12.6793	-44.2015	32.491
12.6837	-49.4173	32.5398
12.6877	-55.08065	32.5886
12.69174	-49.0893	32.6375
12.69717	-41.2383	32.6863
12.7006	-42.7801	32.7351
12.7049	-50.5494	32.7839
12.7075	-53.3574	32.8328
12.7123	-44.6763	32.8816
12.7168	-41.8018	32.93042
12.72114	-47.2111	32.9792
12.7241	-51.3543	33.0281
12.7286	-48.7036	33.0769
12.7321	-42.2972	33.1257
12.7357	-44.1562	33.1746
12.7401	-52.3022	33.2234
12.7446	-56.4906	33.2722
12.7494	-47.23682	33.321
12.7541	-40.9686	33.3699
12.75732	-44.0556	33.4187
12.7604	-53.0831	33.4675
12.7652	-51.6223	33.5164
12.7694	-42.01292	33.5652
12.77376	-41.6129	33.614
12.7764	-48.4059	33.6628
12.7816	-52.1239	33.71167
12.7833	-49.37833	33.7214