Folder: Stress_Strain_Analysis_Tools/data/processed_data_files/tensile (part 12)

File: 0.254_hd_dimension_typeiv_4545_r(1).dat
MTS793|BTW|ENU|1|2|.|/|:|1|0|0|A

Data Header:			0.254_hd_dimension_typeiv_4545_r0			Time:	20.0178	s	4/13/2019 8:11:27 PM
Data Acquisition:	Timed
Station Name:	ft40.cfg
Test File Name:	monotonic_0.2540_typeiv_hd_4545_dimension.tst
Displacement	Force	Running Time
mm	N	s
-40.0337	-52.1828	0.0227051
-40.0339	-53.4153	0.0910645
-40.0291	-50.1244	0.159424
-40.0214	-48.89534	0.2277832
-40.01696	-49.8819	0.296143
-40.0104	-47.5135	0.364502
-40.0059	-38.7292	0.432861
-39.9985	-35.6275	0.5012207
-39.99419	-30.5372	0.56958
-39.9878	-25.6345	0.637939
-39.982	-22.9137	0.706299
-39.9765	-19.20727	0.7746582
-39.9704	-17.7533	0.843018
-39.96595	-17.1366	0.911377
-39.959	-17.5002	0.979736
-39.954	-12.8483	1.0481
-39.9483	-8.93658	1.11646
-39.9423	-4.37015	1.18481
-39.9358	-0.400863	1.25317
-39.9306	5.813262	1.32153
-39.9251	10.3857	1.38989
-39.92	14.7983	1.458252
-39.914	16.44058	1.52661
-39.90773	17.1997	1.59497
-39.9025	18.4266	1.66333
-39.89658	21.442	1.73169
-39.8912	23.6038	1.80005
-39.8847	26.901	1.86841
-39.8794	33.1583	1.93677
-39.8734	37.9179	2.005127
-39.8677	41.74831	2.07349
-39.86274	48.8422	2.14185
-39.8577	50.3626	2.21021
-39.8512	49.8004	2.27856
-39.8458	50.4503	2.34692
-39.8398	54.6162	2.41528
-39.8346	55.0716	2.48364
-39.8279	58.606	2.552002
-39.8237	65.0198	2.62036
-39.8176	67.9176	2.68872
-39.8122	73.8346	2.75708
-39.805	80.9773	2.82544
-39.7997	83.252	2.8938
-39.7935	81.9029	2.96216
-39.78912	84.561	3.03052
-39.781	91.6022	3.098877
-39.7776	88.09214	3.16724
-39.7711	90.833	3.2356
-39.7653	95.1581	3.30396
-39.761	98.0044	3.37231
-39.755	103.967	3.44067
-39.7489	110.202	3.50903
-39.7434	113.131	3.57739
-39.7369	114.348	3.645752
-39.7313	119.683	3.71411
-39.7265	124.823	3.78247
-39.7206	121.532	3.85083
-39.7144	123.92	3.91919
-39.7077	127.837	3.98755
-39.7035	131.326	4.05591
-39.6971	135.94	4.12427
-39.6916	142.175	4.192627
-39.6873	145.3614	4.26099
-39.6808	146.839	4.32935
-39.6757	152.135	4.39771
-39.66922	156.091	4.46606
-39.6635	154.825	4.53442
-39.6572	157.363	4.60278
-39.6526	158.899	4.67114
-39.6455	161.728	4.739502
-39.63987	166.074	4.80786
-39.635	170.524	4.87622
-39.6282	174.2471	4.94458
-39.6239	176.983	5.01294
-39.61858	184.48	5.0813
-39.6128	187.216	5.14966
-39.6056	187.45	5.21802
-39.60141	187.873	5.286377
-39.5955	189.473	5.35474
-39.5892	194.483	5.4231
-39.5831	196.789	5.49146
-39.5771	198.691	5.55981
-39.5718	201.8721	5.62817
-39.5666	207.58	5.69653
-39.5619	214.648	5.76489
-39.5547	218.076	5.833252
-39.5498	219.723	5.90161
-39.5437	221.467	5.96997
-39.5377	218.807	6.03833
-39.5323	223.857	6.10669
-39.5265	227.929	6.17505
-39.5204	227.871	6.24341
-39.5162	229.572	6.31177
-39.5088	238.9641	6.380127
-39.5034	244.34	6.44849
-39.4971	244.847	6.51685
-39.4929	249.3325	6.58521
-39.4874	250.9427	6.65356
-39.4817	250.52	6.72192
-39.4756	254.481	6.79028
-39.4694	257.3681	6.85864
-39.4643	255.774	6.927002
-39.4579	259.176	6.99536
-39.4526	268.091	7.06372
-39.4467	272.141	7.13208
-39.4415	273.7215	7.20044
-39.4358	280.282	7.2688
-39.43	282.783	7.33716
-39.4242	282.218	7.40552
-39.4185	285.759	7.473877
-39.41283	287.127	7.54224
-39.4073	284.599	7.6106
-39.4035	288.023	7.67896
-39.3965	296.218	7.74731
-39.3909	299.14	7.81567
-39.3847	301.666	7.88403
-39.3782	308.158	7.95239
-39.3728	309.913	8.020752
-39.3679	312.481	8.08911
-39.3615	315.903	8.15747
-39.3563	316.159	8.22583
-39.3505	312.874	8.29419
-39.3444	316.862	8.36255
-39.3397	322.903	8.43091
-39.33276	324.064	8.49927
-39.328	327.787	8.567627
-39.32169	335.24	8.63599
-39.31662	337.832	8.70435
-39.31076	340.161	8.77271
-39.30426	344.165	8.84106
-39.2988	343.825	8.90942
-39.2934	339.924	8.97778
-39.2868	344.38	9.04614
-39.281	348.953	9.114502
-39.2765	349.698	9.18286
-39.2697	355.354	9.25122
-39.266	359.326	9.31958
-39.2593	364.119	9.38794
-39.2534	367.246	9.4563
-39.247	369.678	9.52466
-39.2431	368.541	9.59302
-39.2366	368.5632	9.661377
-39.2319	372.563	9.72974
-39.2252	375.041	9.7981
-39.2185	375.148	9.86646
-39.21479	380.231	9.93481
-39.2085	383.659	10.0032
-39.2028	389.289	10.0715
-39.1954	393.243	10.1399
-39.1909	396.191	10.2083
-39.1854	393.919	10.2766
-39.18	395.614	10.345
-39.17337	398.23	10.41333
-39.16798	397.964	10.4817
-39.163	399.2814	10.55
-39.1564	401.807	10.6184
-39.1514	404.027	10.6868
-39.1468	410.345	10.7551
-39.1395	416.817	10.8235
-39.1344	417.569	10.8918
-39.1277	418.049	10.9602
-39.1219	420.96	11.0286
-39.11758	423.021	11.0969
-39.1113	420.736	11.1653
-39.1059	421.896	11.2336
-39.1001	425.896	11.302
-39.0948	425.833	11.3704
-39.088	432.086	11.4387
-39.0827	437.528	11.50708
-39.07732	436.888	11.5754
-39.0699	437.415	11.6438
-39.0651	442.088	11.7122
-39.0597	443.093	11.7805
-39.054	440.85	11.8489
-39.048	442.157	11.9172
-39.0434	442.75	11.9856
-39.0386	445.362	12.054
-39.0317	449.063	12.1223
-39.0261	452.5463	12.1907
-39.0194	453.345	12.259
-39.014	455.233	12.3274
-39.00798	461.079	12.3958
-39.0028	460.138	12.4641
-38.9971	458.622	12.5325
-38.9919	458.822	12.60083
-38.986	460.562	12.6692
-38.9803	460.421	12.7375
-38.9754	462.169	12.8059
-38.9687	465.302	12.8743
-38.9638	464.565	12.9426
-38.9572	467.429	13.011
-38.9517	475.02	13.0793
-38.94622	472.747	13.1477
-38.9413	472.5614	13.2161
-38.9339	473.271	13.2844
-38.9283	471.356	13.3528
-38.9237	472.235	13.4211
-38.9187	472.5928	13.4895
-38.9125	473.655	13.5579
-38.9062	474.278	13.6262
-38.901	476.8649	13.69458
-38.8952	483.338	13.7629
-38.8901	482.584	13.8313
-38.8842	480.947	13.8997
-38.87809	480.031	13.968
-38.8727	479.037	14.0364
-38.8666	479.784	14.1047
-38.8606	478.8573	14.1731
-38.8558	476.887	14.2415
-38.849	479.017	14.3098
-38.8435	481.953	14.3782
-38.8382	484.646	14.4465
-38.83139	485.848	14.5149
-38.8266	486.6394	14.5833
-38.8211	484.895	14.6516
-38.8161	483.487	14.72
-38.8102	484.075	14.78833
-38.80394	480.448	14.8567
-38.7978	480.374	14.925
-38.7936	480.149	14.9934
-38.7858	483.291	15.0618
-38.7805	483.452	15.1301
-38.7763	485.695	15.1985
-38.7704	488.991	15.2668
-38.7637	486.863	15.3352
-38.75909	486.49	15.4036
-38.7528	487.242	15.4719
-38.7469	484.375	15.5403
-38.74094	477.759	15.6086
-38.7354	479.69	15.677
-38.7303	483.857	15.7454
-38.7231	481.708	15.8137
-38.7184	484.91	15.88208
-38.712	487.712	15.9504
-38.7061	486.769	16.0188
-38.7021	487.545	16.0872
-38.6959	487.68	16.1555
-38.6895	484.0318	16.2239
-38.6851	478.244	16.2922
-38.6789	479.469	16.3606
-38.6738	482.972	16.429
-38.6677	481.098	16.4973
-38.6609	483.247	16.5657
-38.6561	487.31	16.634
-38.6506	486.32	16.7024
-38.6441	485.731	16.7708
-38.6399	489.313	16.8391
-38.6322	484.52	16.9075
-38.6272	480.249	16.97583
-38.622	482.107	17.0442
-38.6163	482.492	17.1125
-38.6092	480.618	17.1809
-38.6035	481.284	17.2493
-38.5975	485.051	17.3176
-38.5919	485.399	17.386
-38.5868	487.7547	17.4543
-38.5794	489.077	17.5227
-38.5747	483.802	17.5911
-38.5713	479.674	17.6594
-38.564	482.111	17.7278
-38.5582	480.124	17.7961
-38.552	479.789	17.8645
-38.5475	480.126	17.9329
-38.5426	481.388	18.0012
-38.5366	484.354	18.06958
-38.5305	487.39	18.1379
-38.5252	488.822	18.2063
-38.5201	484.679	18.2747
-38.513	482.908	18.343
-38.5065	483.015	18.4114
-38.5016	479.647	18.4797
-38.49509	478.592	18.5481
-38.4909	478.5824	18.6165
-38.4851	479.406	18.6848
-38.4776	483.619	18.7532
-38.47353	487.029	18.8215
-38.4676	485.054	18.8899
-38.4608	483.055	18.9583
-38.4562	484.847	19.0266
-38.4501	485.25	19.095
-38.4455	479.87	19.16333
[...]
-36.4675	466.766	42.8938
-36.465	462.691	42.9231
-36.4628	465.204	42.9524
-36.4597	462.146	42.9817
-36.4574	466.565	43.011
-36.4546	463.514	43.0403
-36.4528	461.292	43.06958
-36.4502	463.2413	43.0989
-36.4475	462.2	43.1282
-36.44516	463.366	43.1575
-36.443	458.701	43.1868
-36.4396	463.23	43.2161
-36.4378	456.241	43.2454
-36.4358	462.459	43.2747
-36.4334	451.333	43.304
-36.4308	457.602	43.3333
-36.4241	30.6627	43.3625
-36.4233	-51.1971	43.3918
-36.4214	-46.1561	43.4211
-36.4206	-37.0644	43.4504
-36.4176	-43.3882	43.4797
-36.4156	-38.6036	43.509
-36.4137	-43.4945	43.53833
-36.4099	-39.0074	43.5676
-36.4082	-43.6801	43.5969
-36.4057	-44.0116	43.6262
-36.40284	-39.1771	43.6555
-36.4008	-42.322	43.6848
-36.39782	-38.557	43.7141
-36.3963	-45.384	43.7434
-36.3937	-37.088	43.7727
-36.3914	-44.6495	43.802
-36.3887	-36.6039	43.8313
-36.3862	-43.9185	43.8606
-36.384	-36.2621	43.8899
-36.38097	-44.8013	43.9192
-36.3789	-38.6395	43.9485
-36.3761	-43.5077	43.9778
-36.3736	-38.436	44.00708
-36.373	-43.46508	44.0364
-36.3695	-38.2137	44.0657
-36.3673	-41.008	44.095
-36.3645	-42.53017	44.1243
-36.3611	-43.0999	44.1536
-36.3593	-44.0289	44.1829
-36.3576	-37.8291	44.2122
-36.3536	-44.6636	44.2415
-36.3523	-38.9535	44.2708
-36.34903	-41.8465	44.3
-36.3471	-39.2843	44.3293
-36.345	-44.2332	44.3586
-36.3425	-40.3553	44.3879
-36.3406	-41.1353	44.4172
-36.3376	-40.2563	44.4465
-36.3348	-43.591	44.47583
-36.3322	-43.2909	44.5051
-36.3303	-39.6085	44.5344
-36.3281	-41.7295	44.5637
-36.3257	-38.618	44.593
-36.3227	-41.3412	44.6223
-36.3202	-37.562	44.6516
-36.3187	-44.5854	44.6809
-36.3154	-39.3007	44.7102
-36.3135	-43.9409	44.7395
-36.31073	-36.0641	44.7688
-36.3076	-43.412	44.7981
-36.3054	-39.0687	44.8274
-36.3041	-44.1455	44.8567
-36.3008	-42.18161	44.886
-36.299	-41.7711	44.9153
-36.2954	-38.8329	44.94458
-36.2937	-40.5446	44.9739
-36.2903	-44.2812	45.0032
-36.289	-41.2097	45.0325
-36.28709	-43.0604	45.0618
-36.2841	-40.5359	45.0911
-36.282	-44.1639	45.1204
-36.27924	-35.9615	45.1497
-36.2784	-43.9766	45.179
-36.2741	-39.1311	45.2083
-36.2713	-48.4553	45.2375
-36.27	-36.1106	45.2668
-36.2676	-43.567	45.2961
-36.2637	-37.9626	45.3254
-36.2616	-45.9623	45.3547
-36.2593	-40.0357	45.384
-36.25769	-44.0407	45.41333
-36.2542	-44.1558	45.4426
-36.2516	-40.1848	45.4719
-36.2499	-40.0966	45.5012
-36.24728	-40.2681	45.5305
-36.2446	-44.4665	45.5598
-36.2427	-38.3144	45.5891
-36.2394	-44.4758	45.6184
-36.2383	-37.4067	45.6477
-36.2355	-43.222	45.677
-36.2324	-35.9342	45.7063
-36.2314	-46.1709	45.7356
-36.2282	-37.6843	45.7649
-36.2257	-43.391	45.7942
-36.2225	-38.46167	45.8235
-36.2196	-42.96225	45.8528
-36.2179	-38.0276	45.88208
-36.2155	-39.5141	45.9114
-36.21286	-42.3516	45.9407
-36.2102	-43.3416	45.97
-36.2088	-38.5521	45.9993
-36.2055	-38.134	46.0286
-36.2029	-42.9348	46.0579
-36.1994	-39.0639	46.0872
-36.1983	-44.352	46.1165
-36.1958	-38.5334	46.1458
-36.1936	-45.9599	46.175
-36.1903	-39.8386	46.2043
-36.1889	-41.975	46.2336
-36.1868	-39.5965	46.2629
-36.1836	-44.02578	46.2922
-36.1812	-41.8765	46.3215
-36.1786	-39.5866	46.35083
-36.1759	-41.6929	46.3801
-36.17308	-41.403	46.4094
-36.1708	-41.7325	46.4387
-36.1698	-40.3805	46.468
-36.1657	-45.256	46.4973
-36.1637	-39.6378	46.5266
-36.1617	-43.9574	46.5559
-36.1591	-37.3916	46.5852
-36.1568	-45.2525	46.6145
-36.1548	-38.72641	46.6438
-36.1518	-43.5568	46.6731
-36.1494	-40.06097	46.7024
-36.147	-42.6037	46.7317
-36.1453	-38.7392	46.761
-36.1432	-41.6337	46.7903
-36.1406	-41.918	46.81958
-36.138	-41.0229	46.8489
-36.1359	-41.0231	46.8782
-36.1327	-39.8522	46.9075
-36.1301	-45.5733	46.9368
-36.1278	-37.1029	46.9661
-36.1257	-43.26207	46.9954
-36.1231	-39.2198	47.0247

File: 0.254_hd_dimension_typeiv_4545_r(2).dat
MTS793|BTW|ENU|1|2|.|/|:|1|0|0|A

Data Header:			0.254_hd_dimension_typeiv_4545_r0			Time:	20.019	s	4/13/2019 8:14:16 PM
Data Acquisition:	Timed
Station Name:	ft40.cfg
Test File Name:	monotonic_0.2540_typeiv_hd_4545_dimension.tst
Displacement	Force	Running Time
mm	N	s
-40.0345	-204.481	0.0231934
-40.0331	-207.175	0.0915527
-40.0266	-206.678	0.159912
-40.0201	-201.147	0.228271
-40.01474	-192.048	0.296631
-40.0094	-190.8544	0.36499
-40.0036	-186.53	0.43335
-39.9974	-180.015	0.501709
-39.9915	-180.604	0.570068
-39.9873	-179.828	0.638428
-39.9812	-173.944	0.706787
-39.9753	-174.373	0.775146
-39.9693	-175.504	0.843506
-39.9632	-171.329	0.911865
-39.9577	-162.262	0.980225
-39.9515	-159.615	1.048584
-39.9469	-156.1476	1.11694
-39.9405	-148.5282	1.1853
-39.9341	-148.212	1.25366
-39.9304	-146.054	1.32202
-39.9243	-142.911	1.39038
-39.9184	-143.423	1.45874
-39.91317	-145.678	1.5271
-39.9072	-139.797	1.595459
-39.9011	-133.772	1.66382
-39.8962	-130.096	1.73218
-39.8895	-125.484	1.80054
-39.8828	-119.583	1.8689
-39.8773	-116.59	1.93726
-39.8727	-112.261	2.00562
-39.8662	-111.786	2.07397
-39.8612	-109.836	2.142334
-39.8548	-112.188	2.21069
-39.8501	-107.749	2.27905
-39.8434	-102.016	2.34741
-39.8382	-99.2076	2.41577
-39.8329	-94.0333	2.48413
-39.8281	-90.2611	2.55249
-39.821	-84.9554	2.62085
-39.8157	-80.5113	2.689209
-39.80986	-78.11869	2.75757
-39.8045	-78.8874	2.82593
-39.7993	-78.7023	2.89429
-39.7929	-73.5662	2.96265
-39.7866	-71.077	3.03101
-39.7811	-69.3737	3.09937
-39.7762	-63.4659	3.16772
-39.7702	-59.8032	3.236084
-39.7651	-53.7216	3.30444
-39.7588	-48.1742	3.3728
-39.7525	-46.6858	3.44116
-39.7471	-45.9526	3.50952
-39.7425	-46.0398	3.57788
-39.7363	-42.098	3.64624
-39.7297	-41.5096	3.7146
-39.7257	-39.0228	3.782959
-39.7188	-31.1354	3.85132
-39.7135	-30.4397	3.91968
-39.7072	-24.4914	3.98804
-39.7013	-18.26664	4.0564
-39.6955	-14.7301	4.12476
-39.6901	-16.0908	4.19312
-39.6846	-13.2416	4.26147
-39.6795	-7.86382	4.329834
-39.674	-9.30416	4.39819
-39.6676	-6.55194	4.46655
-39.6616	-2.712775	4.53491
-39.6563	1.43118	4.60327
-39.651	5.93301	4.67163
-39.6439	14.0052	4.73999
-39.6399	18.2562	4.80835
-39.6323	16.1529	4.876709
-39.627	19.9858	4.94507
-39.6213	25.0443	5.01343
-39.6152	24.0602	5.08179
-39.6104	26.4044	5.15015
-39.6048	28.864	5.21851
-39.5982	31.56801	5.28687
-39.5934	37.1356	5.35522
-39.5873	42.3875	5.423584
-39.5818	46.3885	5.49194
-39.5769	47.988	5.5603
-39.5712	51.4934	5.62866
-39.565	57.5914	5.69702
-39.5582	56.43512	5.76538
-39.5525	57.9661	5.83374
-39.54789	61.8122	5.9021
-39.5438	62.6897	5.970459
-39.5379	68.8447	6.03882
-39.5311	73.5423	6.10718
-39.5244	78.2906	6.17554
-39.5191	80.2517	6.2439
-39.51363	84.2923	6.31226
-39.5081	89.64048	6.38062
-39.5023	88.7136	6.44897
-39.4974	90.9855	6.517334
-39.4906	92.4863	6.58569
-39.4849	93.7741	6.65405
-39.4793	99.2725	6.72241
-39.47369	103.455	6.79077
-39.4667	107.475	6.85913
-39.4631	109.925	6.92749
-39.4558	116.997	6.99585
-39.4509	121.028	7.064209
-39.445	121.762	7.13257
-39.4391	124.732	7.20093
-39.4342	126.243	7.26929
-39.4277	126.067	7.33765
-39.4225	131.642	7.40601
-39.4173	135.786	7.47437
-39.4118	137.14	7.54272
-39.4057	139.144	7.611084
-39.3999	147.737	7.67944
-39.3935	151.451	7.7478
-39.3882	152.439	7.81616
-39.3827	156.625	7.88452
-39.376	158.462	7.95288
-39.3716	157.114	8.02124
-39.36652	161.251	8.0896
-39.3595	165.492	8.157959
-39.3536	163.913	8.22632
-39.3485	168.718	8.29468
-39.3431	176.391	8.36304
-39.3374	181.656	8.4314
-39.3329	182.784	8.49976
-39.3263	187.297	8.56812
-39.3209	190.604	8.63647
-39.3156	188.027	8.704834
-39.3083	190.916	8.77319
-39.3021	194.935	8.84155
-39.299	194.211	8.90991
-39.292	197.082	8.97827
-39.2864	206.633	9.04663
-39.2812	211.855	9.11499
-39.2741	213.0806	9.18335
-39.2687	217.147	9.251709
-39.2638	219.612	9.32007
-39.2579	220.378	9.38843
-39.25211	222.417	9.45679
-39.2461	223.8179	9.52515
-39.2396	224.529	9.59351
-39.2352	227.407	9.66187
-39.2287	233.92	9.73022
-39.2238	239.842	9.798584
-39.2177	242.3398	9.86694
-39.2122	246.986	9.9353
-39.2072	250.825	10.0037
-39.2011	253.048	10.072
-39.195	252.973	10.1404
-39.1901	253.2737	10.20874
-39.1842	253.129	10.2771
-39.1787	256.018	10.3455
-39.17255	264.625	10.4138
-39.1661	267.576	10.4822
-39.1599	271.578	10.5505
-39.15517	276.903	10.6189
-39.1487	278.304	10.6873
-39.1437	282.408	10.7556
-39.1378	283.963	10.824
-39.1327	282.735	10.8923
-39.1264	281.471	10.9607
-39.12048	284.76	11.0291
-39.1157	289.76	11.0974
-39.1093	294.077	11.1658
-39.1046	298.203	11.2341
-39.0987	302.659	11.30249
-39.0928	305.595	11.37085
-39.0871	310.7623	11.4392
-39.081	313.2493	11.5076
-39.0745	312.43	11.5759
-39.0702	309.7395	11.6443
-39.06427	314.354	11.7126
-39.0581	318.174	11.781
-39.0534	317.923	11.8494
-39.0457	324.329	11.9177
-39.0406	329.9201	11.9861
-39.03521	333.186	12.0544
-39.0295	337.798	12.1228
-39.02375	340.79	12.1912
-39.0169	340.975	12.2595
-39.0131	337.873	12.3279
-39.0061	341.801	12.39624
-39.0005	346.76	12.4646
-38.9956	346.931	12.533
-38.9901	348.634	12.6013
-38.984	355.212	12.6697
-38.978	357.876	12.738
-38.9718	362.199	12.8064
-38.9672	367.02	12.8748
-38.9615	366.952	12.9431
-38.9561	364.818	13.0115
-38.9505	366.835	13.0798
-38.94426	372.696	13.1482
-38.939	370.084	13.2166
-38.9332	373.567	13.2849
-38.9266	376.882	13.3533
-38.9216	381.6283	13.4216
-38.916	385.9212	13.48999
-38.91	391.124	13.55835
-38.9048	390.632	13.6267
-38.9001	391.915	13.6951
-38.893	392.435	13.7634
-38.8871	397.9931	13.8318
-38.8815	396.809	13.9001
-38.8766	397.4346	13.9685
-38.8707	398.597	14.0369
-38.8647	404.4007	14.1052
-38.8598	408.973	14.1736
-38.85355	411.486	14.2419
-38.8473	413.722	14.3103
-38.84182	414.566	14.3787
-38.8365	417.557	14.447
-38.8306	418.261	14.5154
-38.8253	417.711	14.58374
-38.8192	419.824	14.6521
-38.8137	420.911	14.7205
-38.8069	423.829	14.7888
-38.8034	428.533	14.8572
-38.796	432.524	14.9255
-38.79192	433.713	14.9939
-38.7841	435.099	15.0623
-38.7796	440.201	15.1306
-38.77309	439.966	15.199
-38.7673	438.411	15.2673
-38.7632	440.5603	15.3357
-38.7554	438.51	15.4041
-38.7502	441.362	15.4724
-38.7454	445.266	15.5408
-38.73856	449.1908	15.6091
-38.7336	449.518	15.67749
-38.7274	452.804	15.74585
-38.72052	459.064	15.8142
-38.7171	458.195	15.8826
-38.7103	456.1803	15.9509
-38.70607	458.0614	16.0193
-38.6993	455.572	16.0876
-38.694	456.498	16.156
-38.6888	460.848	16.2244
-38.6827	464.319	16.2927
-38.6769	462.26	16.3611
-38.671	465.036	16.4294
-38.66547	472.916	16.4978
-38.6599	471.582	16.5662
-38.6533	468.675	16.6345
-38.6483	470.605	16.7029
-38.6421	469.566	16.77124
-38.63612	468.583	16.8396
-38.6319	472.154	16.908
-38.6256	471.692	16.9763
-38.6191	471.4472	17.0447
-38.6145	474.063	17.113
-38.6087	480.457	17.1814
-38.6022	481.392	17.2498
-38.5959	478.9426	17.3181
-38.5903	478.777	17.3865
-38.5853	476.462	17.4548
-38.5799	478.229	17.5232
-38.5744	477.856	17.5916
-38.5678	476.913	17.6599
-38.5625	475.904	17.7283
-38.5568	477.4249	17.7966
-38.5519	483.463	17.86499
-38.5459	484.107	17.93335
-38.54	484.214	18.0017
-38.5347	483.3912	18.0701
-38.5282	479.671	18.1384
-38.5226	481.71	18.2068
-38.5173	479.611	18.2751
-38.5121	477.349	18.3435
-38.5049	477.326	18.4119
-38.5006	480.384	18.4802
-38.4934	483.441	18.5486
-38.489	483.9895	18.6169
-38.4824	485.192	18.6853
-38.4778	483.854	18.7537
-38.4712	483.38	18.822
-38.4659	483.72	18.8904
-38.4603	482.26	18.95874
[...]
-36.3993	475.185	43.6951
-36.3959	472.4415	43.7341
-36.3921	470.458	43.7732
-36.3896	473.679	43.8123
-36.3866	469.207	43.8513
-36.3827	470.917	43.8904
-36.3792	472.385	43.9294
-36.376	467.621	43.9685
-36.372	472.892	44.0076
-36.3709	470.272	44.0466
-36.3654	467.494	44.0857
-36.3636	476.4	44.1248
-36.3595	465.765	44.1638
-36.3557	470.524	44.2029
-36.35305	472.498	44.2419
-36.3512	463.094	44.281
-36.3468	473.4248	44.3201
-36.3436	470.8205	44.3591
-36.3407	466.126	44.3982
-36.3371	473.1622	44.4373
-36.3343	469.556	44.4763
-36.3314	467.411	44.5154
-36.3268	473.339	44.5544
-36.3236	469.45	44.5935
-36.32103	473.81	44.6326
-36.3175	470.364	44.6716
-36.3144	469.642	44.7107
-36.3108	475.407	44.7498
-36.3084	468.837	44.7888
-36.3045	471.285	44.8279
-36.3012	473.392	44.8669
-36.299	468.292	44.906
-36.29496	472.616	44.9451
-36.2915	472.291	44.9841
-36.2882	467.3381	45.0232
-36.2848	474.0477	45.0623
-36.28299	467.0788	45.1013
-36.2773	468.233	45.1404
-36.27557	470.354	45.1794
-36.2726	466.103	45.2185
-36.2687	473.547	45.2576
-36.2637	464.628	45.2966
-36.2619	467.845	45.3357
-36.2585	473.798	45.3748
-36.2553	463.951	45.4138
-36.2521	468.545	45.4529
-36.24852	472.895	45.4919
-36.2465	462.03	45.531
-36.2418	470.842	45.5701
-36.2402	470.154	45.6091
-36.2355	464.212	45.6482
-36.2324	473.571	45.6873
-36.2278	466.141	45.7263
-36.2264	468.327	45.7654
-36.2237	471.574	45.8044
-36.2198	466.512	45.8435
-36.2174	471.794	45.8826
-36.21233	470.238	45.9216
-36.2102	469.523	45.9607
-36.2074	473.714	45.9998
-36.2021	467.508	46.0388
-36.19986	470.264	46.0779
-36.1963	472.672	46.1169
-36.1926	465.483	46.156
-36.1899	472.094	46.1951
-36.1876	469.585	46.2341
-36.1827	467.94	46.2732
-36.1792	471.028	46.3123
-36.1772	466.071	46.3513
-36.1741	469.132	46.3904
-36.17123	468.051	46.4294
-36.1675	465.963	46.4685
-36.1643	468.78	46.5076
-36.1609	467.1329	46.5466
-36.1573	465.0593	46.5857
-36.1547	472.471	46.6248
-36.1528	461.381	46.6638
-36.148	468.14	46.7029
-36.1451	471.0444	46.7419
-36.1415	461.301	46.781
-36.13937	470.536	46.8201
-36.1352	467.234	46.8591
-36.1321	463.027	46.8982
-36.12812	470.129	46.9373
-36.1252	466.473	46.9763
-36.1215	466.452	47.0154
-36.1181	470.3588	47.0544
-36.1162	463.071	47.0935
-36.11237	470.627	47.1326
-36.109	468.551	47.1716
-36.1063	466.018	47.2107
-36.1028	472.078	47.2498
-36.1016	464.291	47.2888
-36.09594	467.1	47.3279
-36.0932	469.4256	47.3669
-36.0887	464.3739	47.406
-36.0857	467.1376	47.4451
-36.0832	467.725	47.4841
-36.0801	462.561	47.5232
-36.0771	467.873	47.5623
-36.0731	462.719	47.6013
-36.07	464.11	47.6404
-36.0677	465.171	47.6794
-36.0632	461.637	47.7185
-36.0599	467.578	47.7576
-36.0568	461.451	47.7966
-36.0538	461.358	47.8357
-36.0504	466	47.8748
-36.0466	459.004	47.9138
-36.0444	463.3689	47.9529
-36.0403	465.737	47.9919
-36.0378	456.171	48.031
-36.0354	462.076	48.0701
-36.0301	457.404	48.1091
-36.027	442.843	48.1482
-36.0222	-25.1188	48.1873
-36.02092	-42.48774	48.2263
-36.017	-42.0398	48.2654
-36.0136	-38.8296	48.3044
-36.0112	-44.1101	48.3435
-36.0074	-38.7807	48.3826
-36.0034	-41.1995	48.4216
-36.0007	-42.3372	48.4607
-35.9994	-37.4417	48.4998
-35.9955	-42.3416	48.5388
-35.9924	-41.8278	48.5779
-35.9881	-37.7114	48.6169
-35.9854	-43.2947	48.656
-35.9829	-39.05637	48.6951
-35.9778	-40.3102	48.7341
-35.9747	-44.33252	48.7732
-35.97332	-40.1005	48.8123
-35.9687	-44.0512	48.8513
-35.9668	-42.7175	48.8904
-35.96151	-42.8643	48.9294
-35.9595	-45.4847	48.9685
-35.9556	-40.1428	49.0076
-35.9528	-44.518	49.0466
-35.9493	-44.2841	49.0857
-35.9455	-37.5574	49.1248
-35.9413	-47.5756	49.1638
-35.94	-42.9075	49.2029
-35.9367	-38.4714	49.2419
-35.93367	-47.621	49.281
-35.931	-38.3208	49.3103