Folder: Stress_Strain_Analysis_Tools/data/processed_data_files/tensile (part 44)

File: 0.254_solid_uprint_typei_090_r(4).dat
MTS793|BTW|ENU|1|2|.|/|:|1|0|0|A

Data Header:			0.254_solid_uprint_typei_090_r0			Time:	20.0205	s	4/15/2019 2:56:36 PM
Data Acquisition:	Timed
Station Name:	ft40.cfg
Test File Name:	monotonic_0.2540_typei_solid_090_uprint.tst
Displacement	Force	Running Time
mm	N	s
9.982317	-108.078	0.0256348
9.98246	-106.122	0.0939941
9.98793	-104.614	0.162354
9.99423	-102.354	0.230713
9.99885	-102.516	0.299072
10.0048	-100.62	0.367432
10.0115	-96.508	0.435791
10.0174	-90.7564	0.50415
10.0226	-86.671	0.57251
10.0288	-79.38	0.640869
10.03395	-72.3416	0.709229
10.0395	-67.6582	0.777588
10.0453	-66.2054	0.845947
10.0506	-64.43428	0.914307
10.05648	-62.9751	0.982666
10.0617	-62.9694	1.05103
10.0688	-57.6341	1.11938
10.0738	-51.8397	1.18774
10.0791	-51.8145	1.2561
10.0857	-45.2054	1.32446
10.0912	-35.3322	1.39282
10.09683	-31.3161	1.46118
10.10331	-28.7744	1.529541
10.1088	-24.0364	1.5979
10.11379	-24.1028	1.66626
10.1195	-23.6364	1.73462
10.1253	-20.5555	1.80298
10.1309	-18.37228	1.87134
10.1357	-15.8519	1.9397
10.1427	-8.4148	2.00806
10.1481	3.37425	2.076416
10.1538	6.358849	2.14478
10.1589	9.81137	2.21313
10.1645	14.9736	2.28149
10.17021	16.6419	2.34985
10.176	16.28092	2.41821
10.1816	19.9636	2.48657
10.1878	22.1456	2.55493
10.193	22.6959	2.623291
10.1999	26.4533	2.69165
10.2047	38.90834	2.76001
10.2109	43.0103	2.82837
10.2158	48.0579	2.89673
10.2218	54.2541	2.96509
10.22732	56.5731	3.03345
10.2335	57.13578	3.10181
10.2386	59.7445	3.170166
10.24426	61.12484	3.23853
10.25085	62.514	3.30688
10.2565	64.5275	3.37524
10.2617	75.5122	3.4436
10.268	81.9649	3.51196
10.2732	86.6503	3.58032
10.2791	92.1077	3.64868
10.2832	97.5434	3.717041
10.2904	100.248	3.7854
10.29511	100.608	3.85376
10.3015	101.567	3.92212
10.3073	100.761	3.99048
10.3126	103.222	4.05884
10.3186	112.319	4.1272
10.324	117.933	4.19556
10.3296	123.857	4.263916
10.3357	130.906	4.33228
10.3412	135.074	4.40063
10.3465	139.674	4.46899
10.35303	142.316	4.53735
10.35852	142.08	4.60571
10.364	140.134	4.67407
10.37018	143.785	4.74243
10.3756	149.214	4.810791
10.38223	154.081	4.87915
10.3872	160.561	4.94751
10.393	169.334	5.01587
10.3976	174.11	5.08423
10.4047	178.994	5.15259
10.4092	183.361	5.22095
10.4156	183.077	5.28931
10.4215	180.407	5.357666
10.4267	183.1427	5.42603
10.4318	188.177	5.49438
10.438	191.543	5.56274
10.444	198.749	5.6311
10.4494	207.494	5.69946
10.4545	211.737	5.76782
10.4607	219.049	5.83618
10.4668	223.595	5.904541
10.4724	224.598	5.9729
10.4792	221.857	6.04126
10.4842	222.827	6.10962
10.4895	229.755	6.17798
10.4952	229.479	6.24634
10.50042	234.1	6.3147
10.5066	242.2829	6.38306
10.5117	249.1109	6.451416
10.51844	256.898	6.51978
10.5235	263.138	6.58813
10.5287	266.9566	6.65649
10.5354	261.569	6.72485
10.5403	264.025	6.79321
10.5455	267.0556	6.86157
10.552	268.863	6.92993
10.5583	271.43	6.998291
10.5631	278.623	7.06665
10.5701	285.9007	7.13501
10.5746	294.385	7.20337
10.5802	298.6738	7.27173
10.5866	302.074	7.34009
10.5919	302.823	7.40845
10.5968	305.261	7.47681
10.6024	307.645	7.545166
10.6075	308.116	7.61353
10.6139	309.856	7.68188
10.6195	314.202	7.75024
10.6258	320.861	7.8186
10.63133	328.789	7.88696
10.6366	335.919	7.95532
10.6438	339.919	8.02368
10.6484	340.904	8.092041
10.6543	343.649	8.1604
10.6606	348.077	8.22876
10.6659	346.264	8.29712
10.6712	348.059	8.36548
10.676	351.511	8.43384
10.6816	355.3031	8.5022
10.6875	363.229	8.57056
10.6935	372.09	8.638916
10.6991	377.058	8.70728
10.7062	380.522	8.77563
10.7114	384.347	8.84399
10.7157	388.298	8.91235
10.7224	384.916	8.98071
10.7282	387.962	9.04907
10.7345	389.358	9.11743
10.7414	389.525	9.185791
10.745	399.135	9.25415
10.7515	407.452	9.32251
10.7569	411.9834	9.39087
10.7631	417.388	9.45923
10.7678	424.108	9.52759
10.77359	427.242	9.59595
10.77984	425.241	9.66431
10.785	425.461	9.732666
10.791	428.074	9.80103
10.7966	427.233	9.86938
10.80252	434.41	9.93774
10.8079	443.847	10.0061
10.8143	448.538	10.0745
10.8199	450.912	10.1428
10.8254	460.2164	10.2112
10.8314	466.172	10.2795
10.836	463.235	10.3479
10.8421	465.638	10.41626
10.8483	466.732	10.4846
10.8537	467.166	10.553
10.8599	469.956	10.6213
10.8644	477.98	10.6897
10.8708	483.37	10.7581
10.8765	485.826	10.8264
10.8823	494.072	10.8948
10.8888	503.678	10.9631
10.8938	504.534	11.0315
10.8989	503.471	11.0999
10.9044	505.673	11.1682
10.9105	505.604	11.2366
10.917	506.745	11.3049
10.9212	511.177	11.3733
10.9279	516.862	11.44165
10.9331	520.837	11.51001
10.9379	530.036	11.5784
10.9447	536.651	11.6467
10.9503	540.811	11.7151
10.9558	542.212	11.7834
10.9623	543.563	11.8518
10.96777	542.604	11.9202
10.9723	543.18	11.9885
10.9784	545.913	12.0569
10.9843	547.555	12.1252
10.9903	554.1618	12.1936
10.9966	561.725	12.262
11.0014	570.357	12.3303
11.0073	574.5166	12.3987
11.0135	579.388	12.467
11.0178	580.519	12.5354
11.0244	578.452	12.60376
11.0305	581.798	12.6721
11.03566	583.246	12.7405
11.0419	581.704	12.8088
11.0475	586.87	12.8772
11.0528	595.961	12.9456
11.05888	602.066	13.0139
11.0639	607.499	13.0823
11.0706	615.33	13.1506
11.0762	617.838	13.219
11.08059	616.097	13.2874
11.0867	617.534	13.3557
11.0922	619.6322	13.4241
11.0981	616.318	13.4924
11.1046	618.605	13.5608
11.1101	628.112	13.62915
11.1152	635.132	13.69751
11.1212	639.3927	13.7659
11.1278	646.236	13.8342
11.1317	652.004	13.9026
11.1389	652.626	13.9709
11.1442	655.33	14.0393
11.1506	656.1394	14.1077
11.1559	652.93	14.176
11.1608	652.747	14.2444
11.1674	659.8327	14.3127
11.1728	667.771	14.3811
11.1774	669.671	14.4495
11.1842	678.362	14.5178
11.1904	685.83	14.5862
11.19543	686.454	14.6545
11.1997	690.01	14.7229
11.2063	690.575	14.79126
11.2124	687.12	14.8596
11.2179	684.824	14.928
11.2239	690.171	14.9963
11.2311	697.791	15.0647
11.2352	702.502	15.1331
11.2413	709.473	15.2014
11.2466	716.559	15.2698
11.2515	721.293	15.3381
11.2581	724.057	15.4065
11.2643	725.147	15.4749
11.26896	722.039	15.5432
11.274	720.821	15.6116
11.2804	724.199	15.6799
11.2865	730.205	15.7483
11.2919	730.253	15.81665
11.2988	738.007	15.88501
11.3045	745.403	15.9534
11.3093	752.77	16.0217
11.3149	757.264	16.0901
11.3205	759.963	16.1584
11.3265	755.866	16.2268
11.331	754.5224	16.2952
11.3374	757.049	16.3635
11.3433	758.37	16.4319
11.3489	761.829	16.5002
11.3558	768.578	16.5686
11.3611	774.921	16.637
11.3664	780.958	16.7053
11.371	788.825	16.7737
11.377	790.707	16.842
11.3841	787.875	16.9104
11.38859	786.364	16.97876
11.3958	790.581	17.0471
11.39919	789.661	17.1155
11.4057	791.447	17.1838
11.4121	796.6236	17.2522
11.4168	802.572	17.3206
11.4224	807.802	17.3889
11.42848	817.033	17.4573
11.4343	821.95	17.5256
11.43996	819.221	17.594
11.4459	820.502	17.6624
11.451	821.869	17.7307
11.4564	820.911	17.7991
11.4639	819.039	17.8674
11.4685	825.575	17.9358
11.4745	829.647	18.00415
11.4802	836.237	18.07251
11.4857	844.502	18.1409
11.4911	849.778	18.2092
11.4965	849.997	18.2776
11.50287	846.2868	18.3459
11.509	850.99	18.4143
11.5145	848.505	18.4827
11.5202	845.09	18.551
11.5258	849.547	18.6194
11.5322	852.744	18.6877
11.5374	857.763	18.7561
11.5423	863.631	18.8245
11.5487	871.141	18.8928
11.5536	872.8515	18.9612
11.5597	872.5459	19.0295
11.5656	877.117	19.0979
11.5712	877.774	19.16626
11.5772	873.377	19.2346
11.5828	875.719	19.303
11.5892	878.391	19.3713
11.5955	881.883	19.4397
11.6002	887.059	19.5081
11.6049	892.313	19.5764
11.6115	896.016	19.6448
11.6172	899.366	19.7131
11.6229	904.543	19.7815
11.6274	902.865	19.8499
[...]
12.1164	974.468	25.6897
12.1184	981.063	25.72876
12.1232	982.97	25.7678
12.1244	972.203	25.8069
12.128	980.733	25.8459
12.1313	978.2193	25.88501
12.1343	973.2	25.9241
12.13752	981.998	25.9631
12.1421	972.175	26.0022
12.1449	977.047	26.04126
12.1481	978.592	26.0803
12.1508	969.297	26.1194
12.1535	982.5166	26.1584
12.15771	972.517	26.19751
12.1602	973.3623	26.2366
12.1641	981.9856	26.2756
12.1681	970.594	26.3147
12.1711	974.699	26.35376
12.1735	979.876	26.3928
12.1768	967.652	26.4319
12.1803	980.843	26.4709
12.184	975.767	26.51001
12.1874	969.256	26.5491
12.1901	981.25	26.5881
12.1932	971.066	26.6272
12.1959	975.862	26.66626
12.1997	976.9317	26.7053
12.203	971.685	26.7444
12.2057	979.43	26.7834
12.2108	973.291	26.82251
12.21292	970.137	26.8616
12.215	977.645	26.9006
12.218	968.247	26.9397
12.223	973.011	26.97876
12.2259	977.533	27.0178
12.22878	964.835	27.0569
12.2323	975.108	27.0959
12.2348	969.763	27.13501
12.23864	965.956	27.1741
12.2412	974.766	27.2131
12.2452	964.056	27.2522
12.2499	969.309	27.29126
12.2521	970.79	27.3303
12.2547	962.456	27.3694
12.2583	972.788	27.4084
12.2609	965.824	27.44751
12.2646	961.223	27.4866
12.2688	975.435	27.5256
12.2719	961.155	27.5647
12.2746	967.608	27.60376
12.2781	972.626	27.6428
12.2813	958.125	27.6819
12.2843	970.036	27.7209
12.2885	966.2536	27.76001
12.29104	960.506	27.7991
12.2936	971.195	27.8381
12.29677	964.852	27.8772
12.3013	964.2066	27.91626
12.304	968.759	27.9553
12.3074	960.793	27.9944
12.3099	969.738	28.0334
12.3139	966.046	28.07251
12.3166	961.334	28.1116
12.32055	972.074	28.1506
12.3224	959.885	28.1897
12.3264	966.0304	28.22876
12.3299	967.204	28.2678
12.3326	957.132	28.3069
12.3369	967.533	28.3459
12.33982	961.967	28.38501
12.3436	957.328	28.4241
12.3462	965.035	28.4631
12.3488	958.104	28.5022
12.3532	959.253	28.54126
12.35592	963.137	28.5803
12.3596	953.683	28.6194
12.362	963.054	28.6584
12.3651	956.6	28.69751
12.3689	953.651	28.7366
12.3725	965.329	28.7756
12.3761	951.086	28.8147
12.3784	957.058	28.85376
12.3824	961.973	28.8928
12.3855	949.7	28.9319
12.3885	959.36	28.9709
12.3918	956.4339	29.01001
12.3957	949.357	29.0491
12.398	959.852	29.0881
12.4109	-8.80809	29.1272
12.4089	-50.6158	29.16626
12.4101	-38.343	29.2053
12.4125	-46.24332	29.2444
12.4148	-35.6726	29.2834
12.4193	-43.2755	29.32251
12.4218	-43.6664	29.3616
12.4258	-37.057	29.4006
12.42647	-46.4932	29.4397
12.4324	-40.1485	29.47876
12.4341	-36.5293	29.5178
12.4377	-46.9036	29.5569
12.4408	-36.7379	29.5959
12.444	-40.7777	29.63501
12.4476	-46.04509	29.6741
12.4504	-37.043	29.7131
12.4539	-46.2305	29.7522
12.4577	-42.1084	29.79126
12.4609	-40.5169	29.8303
12.46323	-48.0894	29.8694
12.4669	-37.9892	29.9084
12.4702	-43.7746	29.94751
12.47342	-44.6796	29.9866
12.4757	-37.6517	30.0256
12.4808	-46.6406	30.0647
12.4824	-43.811	30.10376
12.4854	-37.3305	30.1428
12.4903	-49.366	30.1819
12.4925	-37.4705	30.2209
12.4964	-42.1252	30.26001
12.5006	-47.8621	30.2991
12.5027	-36.4746	30.3381
12.50593	-45.4844	30.3772
12.5095	-42.8202	30.41626
12.5131	-39.5784	30.4553
12.5163	-44.2913	30.4944
12.5195	-38.8904	30.5334
12.5227	-42.1755	30.57251
12.5257	-44.609	30.6116
12.5286	-36.0803	30.6506
12.5333	-44.9672	30.6897
12.5357	-40.2818	30.72876
12.5385	-35.8002	30.7678
12.54218	-47.8889	30.8069
12.5454	-35.0129	30.8459
12.5478	-41.3287	30.88501
12.5508	-45.0046	30.9241
12.55467	-36.3075	30.9631
12.5588	-44.6975	31.0022
12.5616	-42.1158	31.04126
12.565	-39.5152	31.0803
12.5685	-46.1763	31.1194
12.5708	-40.4391	31.1584
12.5747	-41.4702	31.19751
12.5782	-48.4409	31.2366
12.5807	-37.04208	31.2756
12.5834	-49.5633	31.3147
12.5884	-42.498	31.35376
12.5908	-38.6491	31.3928
12.5934	-44.5629	31.4221

File: 0.254_solid_uprint_typei_090_r(5).dat
MTS793|BTW|ENU|1|2|.|/|:|1|0|0|A

Data Header:			0.254_solid_uprint_typei_090_r0			Time:	20.0198	s	4/15/2019 2:58:44 PM
Data Acquisition:	Timed
Station Name:	ft40.cfg
Test File Name:	monotonic_0.2540_typei_solid_090_uprint.tst
Displacement	Force	Running Time
mm	N	s
9.98154	-186.716	0.0227051
9.98525	-186.54	0.0910645
9.99129	-178.05	0.159424
9.9962	-172.28	0.2277832
10.0019	-172.659	0.296143
10.0088	-167.7688	0.364502
10.0142	-158.216	0.432861
10.0187	-160.972	0.5012207
10.0254	-161.006	0.56958
10.0312	-157.451	0.637939
10.036	-157.5304	0.706299
10.0417	-155.195	0.7746582
10.04649	-147.959	0.843018
10.0523	-143.423	0.911377
10.05933	-140.86	0.979736
10.0646	-135.8192	1.0481
10.0701	-127.084	1.11646
10.0763	-125.597	1.18481
10.0823	-125.4641	1.25317
10.0869	-122.601	1.32153
10.0939	-122.821	1.38989
10.0995	-120.9	1.458252
10.1046	-116.022	1.52661
10.1105	-111.983	1.59497
10.1166	-109.856	1.66333
10.1209	-102.821	1.73169
10.1272	-94.6435	1.80005
10.1332	-90.7297	1.86841
10.1391	-91.0294	1.93677
10.144	-87.6535	2.005127
10.1494	-87.895	2.07349
10.1557	-84.9591	2.14185
10.1617	-83.0574	2.21021
10.167	-78.2076	2.27856
10.1729	-76.218	2.34692
10.1795	-67.7655	2.41528
10.1844	-60.0249	2.48364
10.1896	-55.4881	2.552002
10.1946	-52.1182	2.62036
10.2021	-50.0024	2.68872
10.2076	-50.0861	2.75708
10.2121	-46.75069	2.82544
10.2181	-45.4427	2.8938
10.2237	-43.6867	2.96216
10.2294	-40.6166	3.03052
10.2358	-33.2322	3.098877
10.2409	-26.4522	3.16724
10.2472	-22.4184	3.2356
10.2528	-17.1161	3.30396
10.2582	-14.5134	3.37231
10.2641	-11.68108	3.44067
10.2701	-8.81744	3.50903
10.2749	-7.98869	3.57739
10.2807	-9.92495	3.645752
10.2859	-6.981257	3.71411
10.2923	1.5522	3.78247
10.2986	8.1447	3.85083
10.3043	13.3942	3.91919
10.3097	21.2645	3.98755
10.3151	25.1372	4.05591
10.3208	28.1833	4.12427
10.3264	29.6846	4.192627
10.3314	32.2576	4.26099
10.3377	28.3096	4.32935
10.3447	32.4014	4.39771
10.3498	40.4363	4.46606
10.3557	45.3927	4.53442
10.36061	49.3401	4.60278
10.3671	58.3233	4.67114
10.3723	62.3207	4.739502
10.3779	65.1702	4.80786
10.3838	68.9609	4.87622
10.38919	71.8284	4.94458
10.3942	67.4219	5.01294
10.4005	69.4059	5.0813
10.4054	75.8699	5.14966
10.4117	79.0948	5.21802
10.4176	85.6792	5.286377
10.4229	93.1652	5.35474
10.4293	99.9633	5.4231
10.43423	103.572	5.49146
10.441	108.082	5.55981
10.446	109.892	5.62817
10.4516	108.523	5.69653
10.4578	107.6029	5.76489
10.4639	114.124	5.833252
10.4687	117.978	5.90161
10.4746	120.446	5.96997
10.4815	128.71	6.03833
10.4857	135.935	6.10669
10.4912	142.361	6.17505
10.49739	146.691	6.24341
10.5031	147.1563	6.31177
10.5084	147.08	6.380127
10.514	148.985	6.44849
10.521	152.922	6.51685
10.5248	154.857	6.58521
10.5308	159.655	6.65356
10.5377	165.455	6.72192
10.5428	171.255	6.79028
10.5482	179.863	6.85864
10.55456	183.559	6.927002
10.5593	186.64	6.99536
10.5655	185.253	7.06372
10.57133	190.425	7.13208
10.5786	191.591	7.20044
10.5829	193.313	7.2688
10.5871	195.753	7.33716
10.5942	200.784	7.40552
10.6009	206.715	7.473877
10.6064	215.665	7.54224
10.6111	220.306	7.6106
10.6169	222.366	7.67896
10.6226	225.429	7.74731
10.6282	228.886	7.81567
10.633	229.475	7.88403
10.6407	229.415	7.95239
10.6456	233.685	8.020752
10.6502	234.8685	8.08911
10.6575	240.885	8.15747
10.6628	251.06	8.22583
10.6683	256.772	8.29419
10.6723	258.315	8.36255
10.6788	262.775	8.43091
10.6855	269.022	8.49927
10.6906	267.442	8.567627
10.6967	268.5152	8.63599
10.7022	270.874	8.70435
10.7082	274.5	8.77271
10.714	277.925	8.84106
10.7191	284.711	8.90942
10.7251	291.489	8.97778
10.7311	293.953	9.04614
10.73589	298.5983	9.114502
10.7421	308.2742	9.18286
10.7485	309.161	9.25122
10.754	305.84	9.31958
10.7584	310.88	9.38794
10.7638	311.083	9.4563
10.7704	314.827	9.52466
10.7768	321.106	9.59302
10.7811	325.817	9.661377
10.7879	329.115	9.72974
10.7928	336.029	9.7981
10.7985	346.349	9.86646
10.8041	346.099	9.93481
10.81037	346.367	10.0032
10.8161	349.318	10.0715
10.8221	348.304	10.1399
10.8281	351.816	10.2083
10.8326	355.291	10.2766
10.8387	360.3757	10.345
10.8443	364.838	10.41333
10.8503	371.745	10.4817
10.85663	381.239	10.55
10.8614	383.216	10.6184
10.8683	384.14	10.6868
10.8729	387.0889	10.7551
10.8788	387.86	10.8235
10.8848	388.314	10.8918
10.8906	390.29	10.9602
10.8954	394.398	11.0286
10.901	398.326	11.0969
10.9078	405.365	11.1653
10.9137	414.47	11.2336
10.9183	417.952	11.302
10.9244	420.669	11.3704
10.9306	423.998	11.4387
10.9365	424.9581	11.50708
10.9415	425.996	11.5754
10.94789	425.934	11.6438
10.9527	427.727	11.7122
10.9581	432.158	11.7805
10.9641	441.115	11.8489
10.9701	446.656	11.9172
10.97482	452.252	11.9856
10.9821	458.281	12.054
10.988	458.765	12.1223
10.9923	461.4707	12.1907
10.9984	464.989	12.259
11.0033	462.199	12.3274
11.0103	461.877	12.3958
11.0155	466.341	12.4641
11.0205	475.858	12.5325
11.02742	477.078	12.60083
11.0328	485.946	12.6692
11.0394	493.1886	12.7375
11.0447	495.542	12.8059
11.0499	497.422	12.8743
11.0558	501.285	12.9426
11.06163	498.158	13.011
11.0672	494.5625	13.0793
11.0724	500.729	13.1477
11.0782	507.137	13.2161
11.0837	509.655	13.2844
11.09	516.966	13.3528
11.0942	526.969	13.4211
11.1008	527.539	13.4895
11.1065	533.557	13.5579
11.1133	536.832	13.6262
11.1176	535.497	13.69458
11.124	532.231	13.7629
11.1307	537.504	13.8313
11.13648	541.528	13.8997
11.1408	543.745	13.968
11.1469	548.859	14.0364
11.1522	557.639	14.1047
11.1568	562.5	14.1731
11.1636	566.529	14.2415
11.1691	572.139	14.3098
11.1746	570.266	14.3782
11.1799	568.992	14.4465
11.1871	572.63	14.5149
11.1921	572.7868	14.5833
11.1982	574.822	14.6516
11.2037	580.437	14.72
11.21	588.022	14.78833
11.2154	593.156	14.8567
11.2205	599.2887	14.925
11.2262	605.186	14.9934
11.232	603.146	15.0618
11.2367	604.293	15.1301
11.2424	607.083	15.1985
11.2498	607.487	15.2668
11.2551	607.295	15.3352
11.2602	612.8786	15.4036
11.2654	617.878	15.4719
11.2727	626.975	15.5403
11.2767	632.719	15.6086
11.2832	635.842	15.677
11.2885	636.826	15.7454
11.294	639.431	15.8137
11.3007	642.086	15.88208
11.3062	640.458	15.9504
11.3114	641.085	16.0188
11.318	645.4422	16.0872
11.3227	648.1145	16.1555
11.3293	656.23	16.2239
11.3342	662.243	16.2922
11.34	666.331	16.3606
11.3456	670.421	16.429
11.352	673.944	16.4973
11.3575	674.576	16.5657
11.3627	673.511	16.634
11.3683	674.714	16.7024
11.3748	676.866	16.7708
11.3806	679.068	16.8391
11.3864	685.621	16.9075
11.3922	692.67	16.97583
11.3965	695.12	17.0442
11.4023	699.673	17.1125
11.4083	708.539	17.1809
11.4149	707.62	17.2493
11.4202	705.661	17.3176
11.425	708.923	17.386
11.4314	707.697	17.4543
11.4363	708.506	17.5227
11.4426	716.097	17.5911
11.4481	721.025	17.6594
11.454	721.716	17.7278
11.4601	729.061	17.7961
11.4653	736.98	17.8645
11.4708	737.734	17.9329
11.4771	737.04	18.0012
11.4811	740.723	18.06958
11.4887	739.755	18.1379
11.4939	739.717	18.2063
11.49844	743.208	18.2747
11.505	749.474	18.343
11.512	749.175	18.4114
11.5168	755.548	18.4797
11.5228	765.555	18.5481
11.529	768.757	18.6165
11.5337	768.024	18.6848
11.54	770.919	18.7532
11.54521	770.2179	18.8215
11.5509	769.43	18.8899
11.5566	772.879	18.9583
11.5625	774.862	19.0266
11.56745	775.324	19.095
11.5737	781.932	19.16333
11.5793	792.653	19.2317
11.5849	794.848	19.3
11.5906	798.683	19.3684
11.59663	800.903	19.4368
11.6033	799.347	19.5051
11.6076	799.823	19.5735
11.6133	800.239	19.6418
11.6189	802.369	19.7102
11.6246	803.7489	19.7786
11.6302	809.384	19.8469
11.6361	816.643	19.9153
[...]
12.2154	949.589	26.8586
12.2186	943.702	26.9075
12.2231	941.591	26.9563
12.227	948.604	27.0051
12.2305	950.512	27.054
12.2342	945.7981	27.1028
12.239	941.553	27.1516
12.2433	942.284	27.2004
12.2475	948.2569	27.2493
12.2505	948.265	27.2981
12.255	941.297	27.3469
12.2593	939.2	27.3958
12.2631	940.734	27.44458
12.2674	943.594	27.4934
12.2716	942.7796	27.5422
12.2754	939.048	27.5911
12.2799	939.831	27.6399
12.2841	947.997	27.6887
12.2876	946.427	27.7375
12.2927	940.724	27.7864
12.2954	937.176	27.8352
12.2995	940.714	27.884
12.30479	946.25	27.9329
12.3077	942.7	27.9817
12.3122	937.671	28.0305
12.317	937.346	28.0793
12.3208	940.605	28.1282
12.3237	942.423	28.177
12.3278	936.453	28.22583
12.3324	934.197	28.2747
12.3363	937.909	28.3235
12.3404	946.431	28.3723
12.3444	942.994	28.4211
12.3489	933.662	28.47
12.35283	934.008	28.5188
12.3564	941.375	28.5676
12.3605	942.196	28.6165
12.3651	936.936	28.6653
12.3685	931.899	28.7141
12.3733	935.335	28.7629
12.3764	940.07	28.8118
12.38052	937.076	28.8606
12.3849	931.503	28.9094
12.389	930.301	28.9583
12.3929	937.486	29.00708
12.3978	942.234	29.0559
12.40201	937.0061	29.1047
12.406	930.636	29.1536
12.4107	931.329	29.2024
12.4145	938.737	29.2512
12.4172	939.59	29.3
12.422	932.104	29.3489
12.4268	928.308	29.3977
12.431	933.274	29.4465
12.4347	937.16	29.4954
12.439	933.326	29.5442
12.4414	925.429	29.593
12.4474	926.169	29.6418
12.4504	935.407	29.6907
12.4542	937.777	29.7395
12.4581	932.369	29.78833
12.4629	926.556	29.8372
12.4669	928.059	29.886
12.4699	938.308	29.9348
12.4761	934.715	29.9836
12.4797	926.3681	30.0325
12.4833	924.7395	30.0813
12.4864	931.1817	30.1301
12.49022	937.339	30.179
12.4953	928.126	30.2278
12.4989	920.649	30.2766
12.5035	924.217	30.3254
12.5079	933.682	30.3743
12.5116	933.444	30.4231
12.51513	926.498	30.4719
12.5209	923.253	30.5208
12.5243	928.199	30.56958
12.5288	932.039	30.6184
12.5316	930.175	30.6672
12.5365	921.124	30.7161
12.5395	921.177	30.7649
12.5449	928.357	30.8137
12.5479	931.415	30.8625
12.5531	921.362	30.9114
12.55651	916.377	30.9602
12.5603	921.8717	31.009
12.5637	928.635	31.0579
12.5691	927.579	31.1067
12.5733	918.6554	31.1555
12.5763	918.368	31.2043
12.58077	924.749	31.2532
12.5854	927.803	31.302
12.5891	923.026	31.35083
12.5926	917.058	31.3997
12.59721	919.904	31.4485
12.6011	926.692	31.4973
12.6056	926.3457	31.5461
12.60907	917.972	31.595
12.6138	913.833	31.6438
12.6173	917.982	31.6926
12.621	922.021	31.7415
12.6259	917.535	31.7903
12.6291	912.858	31.8391
12.6349	912.197	31.8879
12.6431	-47.2893	31.9368
12.6431	-41.5156	31.9856
12.6479	-42.4976	32.0344
12.6502	-45.6619	32.0833
12.6551	-41.0488	32.13208
12.6591	-34.6542	32.1809
12.6631	-38.2448	32.2297
12.6668	-45.6271	32.2786
12.6706	-44.5726	32.3274
12.6745	-41.8101	32.3762
12.6787	-37.5715	32.425
12.6828	-41.9221	32.4739
12.6864	-45.2381	32.5227
12.6911	-41.0794	32.5715
12.6952	-35.741	32.6204
12.6993	-39.1514	32.6692
12.70301	-45.8299	32.718
12.7069	-45.3759	32.7668
12.7116	-39.8121	32.8157
12.7152	-36.3377	32.8645
12.7195	-40.1236	32.91333
12.7233	-45.0917	32.9622
12.7273	-42.2421	33.011
12.7322	-37.599	33.0598
12.7362	-40.2897	33.1086
12.74	-44.2092	33.1575
12.74436	-44.0672	33.2063
12.748	-39.34584	33.2551
12.7516	-37.0619	33.304
12.7562	-42.5129	33.3528
12.7609	-46.8736	33.4016
12.7642	-43.8419	33.4504
12.769	-37.4414	33.4993
12.772	-39.2965	33.5481
12.77626	-41.3986	33.5969
12.7805	-43.7385	33.6458
12.7846	-38.5868	33.69458
12.7887	-36.6771	33.7434
12.7915	-40.9998	33.7922
12.7966	-46.5968	33.8411
12.8007	-43.484	33.8899
12.8052	-36.5406	33.9387
12.8097	-36.2808	33.9875
12.8137	-42.1175	34.0364
12.817	-48.1152	34.0852
12.8218	-41.8857	34.134
12.8223	-44.2522	34.1536