Folder: Stress_Strain_Analysis_Tools/data/processed_data_files/tensile (part 17)

File: 0.254_hd_uprint_typei_090_r(6).dat
MTS793|BTW|ENU|1|2|.|/|:|1|0|0|A

Data Header:			0.254_hd_uprint_typei_090_r0			Time:	20.0188	s	4/15/2019 4:00:09 PM
Data Acquisition:	Timed
Station Name:	ft40.cfg
Test File Name:	monotonic_0.2540_typei_hd_090_uprint.tst
Displacement	Force	Running Time
mm	N	s
9.98039	-125.7766	0.0227051
9.98044	-121.806	0.0910645
9.985754	-116.819	0.159424
9.99204	-118.059	0.2277832
9.99732	-118.913	0.296143
10.0037	-117.113	0.364502
10.0086	-116.796	0.432861
10.01523	-116.463	0.5012207
10.0206	-112.865	0.56958
10.0264	-110.711	0.637939
10.0322	-106.201	0.706299
10.03721	-99.0894	0.7746582
10.04411	-94.8839	0.843018
10.0492	-93.0981	0.911377
10.0538	-92.7145	0.979736
10.0612	-93.5665	1.0481
10.0661	-91.8565	1.11646
10.072	-92.1824	1.18481
10.077	-90.8951	1.25317
10.0831	-88.1371	1.32153
10.0889	-83.1462	1.38989
10.095	-74.7711	1.458252
10.1004	-71.9307	1.52661
10.1071	-68.2209	1.59497
10.112	-66.5192	1.66333
10.1181	-67.5007	1.73169
10.123	-66.3888	1.80005
10.1291	-65.2583	1.86841
10.1352	-66.325	1.93677
10.1401	-63.4864	2.005127
10.1459	-55.9694	2.07349
10.1516	-50.4806	2.14185
10.15624	-46.477	2.21021
10.1628	-41.3854	2.27856
10.1687	-37.5965	2.34692
10.17454	-38.7989	2.41528
10.1799	-35.3489	2.48364
10.1869	-36.942	2.552002
10.19133	-38.0846	2.62036
10.1979	-37.5386	2.68872
10.2023	-28.462	2.75708
10.2086	-23.1688	2.82544
10.2145	-18.6701	2.8938
10.2203	-12.925	2.96216
10.2245	-9.40784	3.03052
10.23102	-7.88721	3.098877
10.2368	-7.46396	3.16724
10.242	-4.36675	3.2356
10.2494	-10.7074	3.30396
10.2552	-9.56824	3.37231
10.2598	-0.1228651	3.44067
10.2651	5.30444	3.50903
10.2705	7.35215	3.57739
10.2769	15.6242	3.645752
10.2835	20.9823	3.71411
10.2883	22.1189	3.78247
10.29402	24.5104	3.85083
10.30014	27.0566	3.91919
10.3059	25.15929	3.98755
10.3121	21.7393	4.05591
10.3178	30.38077	4.12427
10.3221	35.1163	4.192627
10.3278	38.4733	4.26099
10.3334	45.8372	4.32935
10.3392	50.93795	4.39771
10.3455	54.7646	4.46606
10.3508	59.0703	4.53442
10.3569	58.2106	4.60278
10.3622	58.6791	4.67114
10.3687	56.59351	4.739502
10.3732	63.2703	4.80786
10.3799	66.1849	4.87622
10.385	70.0459	4.94458
10.3916	76.5458	5.01294
10.3959	80.8013	5.0813
10.402	85.5014	5.14966
10.4077	90.8673	5.21802
10.4142	92.2239	5.286377
10.4194	91.4166	5.35474
10.4249	91.46553	5.4231
10.4305	95.4801	5.49146
10.43605	96.6762	5.55981
10.4415	101.272	5.62817
10.449	104.382	5.69653
10.4523	110.848	5.76489
10.4595	118.939	5.833252
10.4655	122.137	5.90161
10.4706	125.739	5.96997
10.4764	126.881	6.03833
10.4808	128.572	6.10669
10.48776	130.07	6.17505
10.4923	131.386	6.24341
10.4987	134.872	6.31177
10.5043	138.211	6.380127
10.5109	142.773	6.44849
10.5167	149.587	6.51685
10.5222	154.132	6.58521
10.528	155.205	6.65356
10.5335	157.855	6.72192
10.5392	161.697	6.79028
10.5453	164.972	6.85864
10.5504	164.44	6.927002
10.5556	167.462	6.99536
10.561	170.031	7.06372
10.5668	172.067	7.13208
10.57273	180.6768	7.20044
10.578	186.71	7.2688
10.5842	189.229	7.33716
10.589	190.319	7.40552
10.5966	198.722	7.473877
10.6015	199.3416	7.54224
10.6074	196.999	7.6106
10.6135	202.383	7.67896
10.6182	203.069	7.74731
10.62433	205.002	7.81567
10.62953	212.594	7.88403
10.6353	218.335	7.95239
10.6412	218.075	8.020752
10.6457	222.5629	8.08911
10.6533	232.406	8.15747
10.6594	234.291	8.22583
10.6648	232.444	8.29419
10.6691	234.922	8.36255
10.6754	236.087	8.43091
10.68171	236.866	8.49927
10.6877	241.858	8.567627
10.6928	247.928	8.63599
10.6977	251.992	8.70435
10.7043	255.9796	8.77271
10.70971	265.346	8.84106
10.7154	268.094	8.90942
10.7201	268.183	8.97778
10.7267	271.415	9.04614
10.7326	269.91	9.114502
10.7374	270.91	9.18286
10.7435	275.983	9.25122
10.7506	280.111	9.31958
10.7547	280.9097	9.38794
10.7605	287.757	9.4563
10.766	297.999	9.52466
10.7722	301.406	9.59302
10.7782	304.404	9.661377
10.7852	304.684	9.72974
10.7898	304.364	9.7981
10.7953	305.125	9.86646
10.8003	307.9502	9.93481
10.8069	309.5137	10.0032
10.8119	312.909	10.0715
10.8187	319.928	10.1399
10.8235	328.522	10.2083
10.8289	334.029	10.2766
10.8352	337.382	10.345
10.8413	337.819	10.41333
10.8466	339.326	10.4817
10.8527	340.51	10.55
10.8575	340.495	10.6184
10.8627	341.276	10.6868
10.8696	344.812	10.7551
10.8756	350.4072	10.8235
10.88	359.87	10.8918
10.8867	362.711	10.9602
10.8923	369.892	11.0286
10.8983	371.425	11.0969
10.90317	372.64	11.1653
10.9096	374.034	11.2336
10.9145	374.975	11.302
10.92	372.1	11.3704
10.9266	374.385	11.4387
10.9323	381.149	11.50708
10.9372	388.478	11.5754
10.9433	393.9917	11.6438
10.9494	400.669	11.7122
10.9545	404.353	11.7805
10.9617	404.581	11.8489
10.9667	407.346	11.9172
10.9714	408.968	11.9856
10.9774	404.701	12.054
10.9832	404.671	12.1223
10.9894	413.304	12.1907
10.9935	418.151	12.259
11.0005	423.911	12.3274
11.00596	431.158	12.3958
11.0122	435.44	12.4641
11.0176	438.84	12.5325
11.0236	440.24	12.60083
11.0286	442.109	12.6692
11.0346	437.0498	12.7375
11.0401	436.634	12.8059
11.0457	445.544	12.8743
11.0511	448.984	12.9426
11.0573	450.546	13.011
11.0641	460.752	13.0793
11.0692	466.625	13.1477
11.0741	470.556	13.2161
11.0804	472.435	13.2844
11.0851	474.545	13.3528
11.0921	470.925	13.4211
11.0973	470.468	13.4895
11.1024	477.483	13.5579
11.1085	478.1713	13.6262
11.1144	481.882	13.69458
11.1196	489.65	13.7629
11.1256	494.4613	13.8313
11.131	499.501	13.8997
11.1357	502.596	13.968
11.1425	505.137	14.0364
11.1486	503.846	14.1047
11.1544	504.695	14.1731
11.1599	508.569	14.2415
11.1652	509.973	14.3098
11.1707	511.245	14.3782
11.1768	517.461	14.4465
11.1825	522.205	14.5149
11.1877	529.873	14.5833
11.194	534.313	14.6516
11.2004	534.2627	14.72
11.2055	535.338	14.78833
11.2113	537.258	14.8567
11.2156	538.797	14.925
11.2222	538.996	14.9934
11.2271	542.4826	15.0618
11.2329	543.3158	15.1301
11.23982	549.722	15.1985
11.2448	555.711	15.2668
11.2504	560.578	15.3352
11.256	560.925	15.4036
11.2607	565.398	15.4719
11.2681	567.937	15.5403
11.2738	566.566	15.6086
11.279	567.5	15.677
11.285	570.597	15.7454
11.289	571.757	15.8137
11.2965	575.6922	15.88208
11.3005	582.759	15.9504
11.3068	588.534	16.0188
11.3137	588.4021	16.0872
11.3183	592.92	16.1555
11.32485	600.526	16.2239
11.3308	598.103	16.2922
11.3358	596.238	16.3606
11.3414	600.411	16.429
11.3472	599.4079	16.4973
11.3537	602.745	16.5657
11.35861	607.252	16.634
11.364	613.421	16.7024
11.369	617.483	16.7708
11.3766	620.898	16.8391
11.3818	629.4057	16.9075
11.3881	628.143	16.97583
11.3925	626.92	17.0442
11.3988	630.987	17.1125
11.4048	628.721	17.1809
11.4102	631.227	17.2493
11.4159	637.189	17.3176
11.4216	641.63	17.386
11.428	641.19	17.4543
11.4327	648.148	17.5227
11.4385	657.23	17.5911
11.4441	658.706	17.6594
11.45	656.506	17.7278
11.4567	658.221	17.7961
11.4617	657.794	17.8645
11.467	659.402	17.9329
11.4733	661.088	18.0012
11.4788	664.089	18.06958
11.48366	669.0899	18.1379
11.4908	673.109	18.2063
11.4953	683.594	18.2747
11.5011	686.9151	18.343
11.5075	687.721	18.4114
11.5132	688.043	18.4797
11.51817	687.441	18.5481
11.5233	686.536	18.6165
11.53	687.249	18.6848
11.5356	688.798	18.7532
11.541	694.5036	18.8215
11.5469	700.046	18.8899
11.5523	709.185	18.9583
11.559	712.169	19.0266
11.565	715.1073	19.095
11.5696	714.5658	19.16333
11.57537	715.595	19.2317
11.5807	715.128	19.3
11.5872	717.046	19.3684
11.5916	713.848	19.4368
11.5983	718.409	19.5051
11.6041	723.011	19.5735
11.6094	731.259	19.6418
11.61508	735.51	19.7102
11.62136	740.121	19.7786
11.6262	740.281	19.8469
11.6328	743.817	19.9153
[...]
13.3547	833.343	40.5891
13.3567	832.607	40.6086
13.3585	826.629	40.6282
13.3603	837.778	40.6477
13.3612	834.109	40.6672
13.3643	826.362	40.6868
13.36521	828.388	40.7063
13.366	836.62	40.72583
13.3672	826.179	40.7454
13.36892	832.744	40.7649
13.3706	834.668	40.7844
13.374	828.8031	40.804
13.3737	826.544	40.8235
13.3762	838.168	40.843
13.3777	827.654	40.8625
13.38019	826.687	40.88208
13.3803	835.446	40.9016
13.3832	829.058	40.9211
13.3845	818.81	40.9407
13.3859	832.505	40.9602
13.3869	830.2995	40.9797
13.3886	820.734	40.9993
13.3969	3.08957	41.0188
13.3969	-45.4358	41.03833
13.3962	-52.4156	41.0579
13.3972	-45.1202	41.0774
13.3981	-43.1288	41.0969
13.4002	-54.7551	41.1165
13.4015	-49.1194	41.136
13.4023	-44.3677	41.1555
13.4041	-52.4949	41.175
13.4063	-52.77306	41.19458
13.407	-45.0048	41.2141
13.4103	-48.49	41.2336
13.4113	-51.4724	41.2532
13.4121	-48.4786	41.2727
13.4138	-48.0354	41.2922
13.4166	-54.7091	41.3118
13.41761	-43.6993	41.3313
13.4191	-44.4363	41.35083
13.4207	-51.5683	41.3704
13.4226	-52.8233	41.3899
13.4239	-41.951	41.4094
13.42589	-54.1119	41.429
13.4268	-48.9555	41.4485
13.4283	-43.5278	41.468
13.43063	-47.8932	41.4875
13.4331	-55.2071	41.50708
13.4343	-41.5467	41.5266
13.4339	-48.436	41.5461
13.4365	-53.5579	41.5657
13.4383	-42.5348	41.5852
13.4404	-45.6712	41.6047
13.4417	-56.1814	41.6243
13.443	-45.7736	41.6438
13.4449	-43.7011	41.66333
13.4466	-50.4501	41.6829
13.4473	-48.1982	41.7024
13.44924	-45.7167	41.7219
13.45188	-54.5099	41.7415
13.45289	-49.9425	41.761
13.4542	-40.2886	41.7805
13.4563	-51.11919	41.8
13.4572	-52.4088	41.81958
13.4591	-46.8	41.8391
13.4603	-47.3824	41.8586
13.4623	-52.7099	41.8782
13.4646	-43.9634	41.8977
13.4657	-44.9554	41.9172
13.4676	-51.8294	41.9368
13.4692	-47.4492	41.9563
13.46964	-45.3241	41.97583
13.4721	-55.3675	41.9954
13.473	-47.9504	42.0149
13.476	-44.2316	42.0344
13.4781	-50.7902	42.054
13.47852	-54.5395	42.0735
13.481	-41.5813	42.093
13.4814	-49.4371	42.1125
13.4839	-50.3637	42.13208
13.4848	-43.2154	42.1516
13.4865	-47.7095	42.1711
13.4887	-56.0595	42.1907
13.4904	-42.8915	42.2102
13.4921	-48.2152	42.2297
13.4939	-54.4628	42.2493
13.4955	-45.9639	42.2688
13.4963	-46.0927	42.28833
13.499	-56.0185	42.3079
13.5004	-48.5925	42.3274
13.50121	-43.8855	42.3469
13.5032	-51.4196	42.3665
13.50574	-49.2773	42.386
13.5057	-45.84547	42.4055
13.5082	-53.4203	42.425
13.5099	-51.5765	42.44458
13.5114	-42.7658	42.4641
13.5124	-47.7304	42.4836
13.5152	-52.6502	42.5032
13.5153	-47.9992	42.5227
13.5182	-47.9444	42.5422
13.5185	-52.7512	42.5618
13.5211	-45.4821	42.5813
13.5233	-46.3804	42.60083
13.5239	-52.374	42.6204
13.5272	-52.7273	42.6399
13.5269	-42.003	42.6594
13.5292	-54.5951	42.679
13.5308	-49.1454	42.6985
13.5328	-41.9622	42.718
13.5339	-49.8059	42.7375
13.5358	-55.4089	42.75708
13.53775	-42.9723	42.7766
13.5392	-48.371	42.7961
13.5418	-50.9779	42.8157
13.5433	-44.3272	42.8352
13.5438	-46.4334	42.8547
13.5475	-56.5554	42.8743
13.54659	-45.0215	42.8938
13.5499	-43.83	42.91333
13.5501	-51.078	42.9329
13.5524	-48.30349	42.9524
13.5531	-44.4242	42.9719
13.555	-52.4933	42.9915
13.5572	-51.1398	43.011
13.5589	-43.9724	43.0305
13.5596	-50.7466	43.05
13.5623	-51.0606	43.06958
13.5636	-46.8225	43.0891
13.5653	-50.0096	43.1086
13.5663	-53.5416	43.1282
13.569	-42.8351	43.1477
13.57	-46.0102	43.1672
13.5714	-52.9025	43.1868
13.5734	-51.1541	43.2063
13.5744	-44.96035	43.22583
13.5767	-52.7868	43.2454
13.5787	-46.8389	43.2649
13.5798	-44.5071	43.2844
13.5815	-51.5146	43.304
13.5832	-52.8679	43.3235
13.5852	-40.9617	43.343
13.5861	-50.8669	43.3625
13.5878	-52.6042	43.38208
13.5904	-43.7378	43.4016
13.59141	-48.4161	43.4211
13.5936	-55.7946	43.4407

File: 0.254_hd_uprint_typei_4545_r(1).dat
MTS793|BTW|ENU|1|2|.|/|:|1|0|0|A

Data Header:			0.254_hd_uprint_typei_4545_r0			Time:	20.0178	s	4/15/2019 4:17:56 PM
Data Acquisition:	Timed
Station Name:	ft40.cfg
Test File Name:	monotonic_0.2540_typei_hd_4545_uprint.tst
Displacement	Force	Running Time
mm	N	s
9.98169	-199.092	0.0227051
9.98218	-196.05	0.0910645
9.98785	-189.703	0.159424
9.99365	-185.567	0.2277832
9.99877	-183.335	0.296143
10.0051	-183.97	0.364502
10.0111	-187.265	0.432861
10.01726	-192.94	0.5012207
10.0215	-195.935	0.56958
10.0284	-191.701	0.637939
10.0349	-188.382	0.706299
10.0392	-182.965	0.7746582
10.0448	-175.717	0.843018
10.0521	-171.136	0.911377
10.0571	-166.896	0.979736
10.0627	-164.71	1.0481
10.0674	-166.276	1.11646
10.07505	-171.708	1.18481
10.0801	-175.165	1.25317
10.0854	-171.657	1.32153
10.0911	-172.04	1.38989
10.0963	-167.867	1.458252
10.1018	-159.336	1.52661
10.1069	-154.281	1.59497
10.11323	-148.119	1.66333
10.1193	-143.373	1.73169
10.1242	-142.301	1.80005
10.1301	-149.2634	1.86841
10.1357	-150.807	1.93677
10.1423	-149.566	2.005127
10.14663	-149.749	2.07349
10.1523	-148.302	2.14185
10.1601	-141.256	2.21021
10.16418	-133.685	2.27856
10.1692	-129.298	2.34692
10.176	-122.735	2.41528
10.1822	-116.826	2.48364
10.1869	-121.823	2.552002
10.1933	-124.678	2.62036
10.1995	-124.804	2.68872
10.20458	-123.159	2.75708
10.2106	-124.88	2.82544
10.2153	-119.518	2.8938
10.2231	-110.296	2.96216
10.2278	-105.759	3.03052
10.2328	-99.2664	3.098877
10.2386	-93.8174	3.16724
10.2445	-93.3011	3.2356
10.2511	-96.1874	3.30396
10.2565	-94.4577	3.37231
10.2618	-94.6952	3.44067
10.268	-96.0679	3.50903
10.2725	-94.5321	3.57739
10.2778	-88.3951	3.645752
10.2836	-80.9809	3.71411
10.2893	-73.2045	3.78247
10.2961	-67.6242	3.85083
10.3013	-66.0784	3.91919
10.3069	-65.2818	3.98755
10.31335	-65.9734	4.05591
10.3182	-64.2317	4.12427
10.3237	-68.3647	4.192627
10.3294	-67.28138	4.26099
10.3359	-62.7359	4.32935
10.341	-58.584	4.39771
10.3465	-48.1562	4.46606
10.3526	-41.3527	4.53442
10.3579	-37.7356	4.60278
10.3628	-36.5123	4.67114
10.3695	-35.1248	4.739502
10.3759	-33.4902	4.80786
10.3808	-37.0539	4.87622
10.3869	-36.51844	4.94458
10.3926	-34.8642	5.01294
10.397	-31.0874	5.0813
10.4028	-23.7431	5.14966
10.4094	-14.54734	5.21802
10.4151	-11.2504	5.286377
10.4206	-8.308794	5.35474
10.425	-6.6842	5.4231
10.4318	-1.51188	5.49146
10.4379	-5.66384	5.55981
10.4429	-7.39178	5.62817
10.449	-3.91158	5.69653
10.455	-3.78385	5.76489
10.4601	3.96578	5.833252
10.4658	10.6692	5.90161
10.4718	16.9171	5.96997
10.4768	18.4258	6.03833
10.48325	24.0728	6.10669
10.489	29.02326	6.17505
10.49482	27.5027	6.24341
10.5006	23.9126	6.31177
10.5062	25.57729	6.380127
10.5119	27.7729	6.44849
10.5178	29.4162	6.51685
10.5227	37.865	6.58521
10.5283	44.8278	6.65356
10.534	48.14	6.72192
10.5412	53.6764	6.79028
10.545	61.0257	6.85864
10.5515	61.7348	6.927002
10.5573	58.8683	6.99536
10.563	58.0946	7.06372
10.5697	56.9673	7.13208
10.575	60.1348	7.20044
10.58	63.4935	7.2688
10.5864	70.4316	7.33716
10.592	75.7987	7.40552
10.5972	82.2031	7.473877
10.6038	89.0326	7.54224
10.6088	91.0518	7.6106
10.6147	90.5061	7.67896
10.6202	90.1914	7.74731
10.62569	88.9038	7.81567
10.6318	89.5204	7.88403
10.6378	95.0633	7.95239
10.64281	98.8613	8.020752
10.6489	102.572	8.08911
10.6537	111.1237	8.15747
10.6605	120.604	8.22583
10.6657	124.302	8.29419
10.6715	123.9953	8.36255
10.6771	125.976	8.43091
10.6822	123.13	8.49927
10.6881	121.151	8.567627
10.6949	125.855	8.63599
10.6988	127.491	8.70435
10.7051	131.319	8.77271
10.7113	136.99	8.84106
10.71707	148.127	8.90942
10.7227	153.317	8.97778
10.7281	153.203	9.04614
10.73394	156.283	9.114502
10.7403	154.275	9.18286
10.7458	153.154	9.25122
10.7519	152.873	9.31958
10.7573	157.306	9.38794
10.7619	159.643	9.4563
10.7692	162.642	9.52466
10.7746	173.748	9.59302
10.7801	183.19	9.661377
10.7848	184.513	9.72974
10.7908	186.174	9.7981
10.7962	188.3501	9.86646
10.803	184.856	9.93481
10.8086	184.242	10.0032
10.8135	187.638	10.0715
10.81918	189.786	10.1399
10.82534	191.862	10.2083
10.8318	198.866	10.2766
10.83639	209.794	10.345
10.842	214.136	10.41333
10.8478	216.189	10.4817
10.854	220.246	10.55
10.85915	218.466	10.6184
10.86424	219.087	10.6868
10.8708	217.427	10.7551
10.8763	217.214	10.8235
10.8808	219.557	10.8918
10.8873	223.993	10.9602
10.8931	235.883	11.0286
10.8989	242.832	11.0969
10.9042	247.668	11.1653
10.91011	251.874	11.2336
10.9158	251.428	11.302
10.9215	251.969	11.3704
10.928	251.84	11.4387
10.9336	246.656	11.50708
10.9396	247.615	11.5754
10.9438	251.2193	11.6438
10.95	261.013	11.7122
10.9555	268.222	11.7805
10.9617	275.898	11.8489
10.9671	281.218	11.9172
10.9733	283.061	11.9856
10.9779	285.269	12.054
10.98467	282.778	12.1223
10.991	280.281	12.1907
10.9961	277.368	12.259
11.0018	280.198	12.3274
11.0074	288.739	12.3958
11.0126	296.098	12.4641
11.0188	300.103	12.5325
11.0243	312.419	12.60083
11.0305	313.686	12.6692
11.0365	313.79	12.7375
11.0416	314.985	12.8059
11.047	314.485	12.8743
11.0529	307.402	12.9426
11.058	307.661	13.011
11.0645	314.797	13.0793
11.0699	321.848	13.1477
11.0758	326.521	13.2161
11.0813	335.771	13.2844
11.087	342.075	13.3528
11.0922	344.61	13.4211
11.0988	344.263	13.4895
11.1034	344.985	13.5579
11.1094	339.113	13.6262
11.1153	335.726	13.69458
11.1214	341.498	13.7629
11.1264	347.78	13.8313
11.1321	350.37	13.8997
11.1379	360.3876	13.968
11.1436	367.526	14.0364
11.1496	374.248	14.1047
11.155	376.093	14.1731
11.1619	376.759	14.2415
11.1669	372.072	14.3098
11.172	368.6532	14.3782
11.1784	370.071	14.4465
11.184	374.608	14.5149
11.1897	378.783	14.5833
11.1955	385.157	14.6516
11.2008	393.872	14.72
11.206	401.89	14.78833
11.212	405.283	14.8567
11.2171	404.864	14.925
11.2234	403.344	14.9934
11.2298	399.782	15.0618
11.2353	399.478	15.1301
11.24087	401.809	15.1985
11.2461	404.538	15.2668
11.2532	411.083	15.3352
11.25816	417.486	15.4036
11.2637	426.578	15.4719
11.2697	432.232	15.5403
11.2745	436.669	15.6086
11.2803	433.099	15.677
11.2861	430.73	15.7454
11.2916	430.246	15.8137
11.2974	430.5513	15.88208
11.3045	429.938	15.9504
11.3081	435.569	16.0188
11.315	443.44	16.0872
11.321	448.639	16.1555
11.3262	458.177	16.2239
11.3321	465.155	16.2922
11.3368	462.273	16.3606
11.3433	459.122	16.429
11.3494	459.127	16.4973
11.3543	461.16	16.5657
11.3609	457.589	16.634
11.3663	458.916	16.7024
11.3723	468.324	16.7708
11.3776	472.797	16.8391
11.3843	481.393	16.9075
11.38793	489.22	16.97583
11.3948	492.097	17.0442
11.3999	488.571	17.1125
11.4066	487.237	17.1809
11.41074	490.012	17.2493
11.4181	486.888	17.3176
11.4229	485.853	17.386
11.4288	492.152	17.4543
11.434	498.702	17.5227
11.44011	505.915	17.5911
11.4457	514.551	17.6594
11.4521	518.217	17.7278
11.4567	518.612	17.7961
11.4626	516.444	17.8645
11.4684	518.4588	17.9329
11.4745	516.575	18.0012
11.47938	515.653	18.06958
11.4858	517.895	18.1379
11.4906	520.647	18.2063
11.4971	528.796	18.2747
11.5023	535.9469	18.343
11.5093	542.236	18.4114
11.5134	543.8703	18.4797
11.5207	544.845	18.5481
11.5252	548.131	18.6165
11.5319	544.573	18.6848
11.5378	543.105	18.7532
11.5428	544.22	18.8215
11.5484	545.986	18.8899
11.5543	551.961	18.9583
11.5599	560.0777	19.0266
11.5656	565.692	19.095
11.5705	567.831	19.16333
11.5771	570.143	19.2317
11.5823	574.278	19.3
11.5889	572.964	19.3684
11.5932	569.004	19.4368
11.6001	570.057	19.5051
11.6059	569.284	19.5735
11.6115	571.799	19.6418
11.6165	580.389	19.7102
11.6227	587.388	19.7786
11.6283	591.117	19.8469
[...]
15.8731	902.946	70.823
15.8803	898.07	70.8914
15.8856	893.624	70.9597
15.8914	894.781	71.0281
15.8967	893.799	71.0964
15.9024	898.256	71.1648
15.9083	900.191	71.2332
15.9139	906.496	71.3015
15.9197	904.0097	71.3699
15.92484	902.945	71.4382
15.9308	904.3175	71.5066
15.9372	901.775	71.575
15.9432	894.129	71.6433
15.948	894.65	71.71167
15.9534	894.631	71.78
15.9596	893.478	71.8484
15.9651	897.531	71.9167
15.97127	903.638	71.9851
15.9777	903.9624	72.0535
15.9831	901.518	72.1218
15.9884	904.945	72.1902
15.9937	900.3302	72.2585
15.9993	895.846	72.3269
16.0045	893.223	72.3953
16.0116	892.418	72.4636
16.0165	892.534	72.532
16.0226	895.3476	72.6003
16.0278	898.771	72.6687
16.0334	901.1153	72.7371
16.0394	900.419	72.80542
16.04394	902.182	72.8738
16.0513	903.415	72.9421
16.0561	898.092	73.0105
16.0622	895.047	73.0789
16.06813	892.427	73.1472
16.0738	892.194	73.2156
16.0792	893.069	73.2839
16.0845	895.451	73.3523
16.09	896.3255	73.4207
16.0967	899.1731	73.489
16.10224	903.548	73.5574
16.1078	902.698	73.6257
16.1128	898.609	73.6941
16.119	897.259	73.7625
16.12492	893.569	73.8308
16.13	890.768	73.89917
16.1367	892.3653	73.9675
16.1411	892.989	74.0359
16.1469	892.17	74.1042
16.1541	896.186	74.1726
16.1589	902.871	74.241
16.1652	902.343	74.3093
16.1704	899.264	74.3777
16.1751	898.2049	74.446
16.1818	894.213	74.5144
16.1874	889.551	74.5828
16.1931	891.1651	74.6511
16.1988	892.026	74.7195
16.2041	891.705	74.7878
16.2108	892.461	74.8562
16.2164	900.515	74.9246
16.2215	903.113	74.99292
16.2262	899.564	75.0613
16.2328	899.189	75.1296
16.2381	896.468	75.198
16.2439	892.307	75.2664
16.2506	890.7793	75.3347
16.2561	890.493	75.4031
16.2605	888.5434	75.4714
16.26829	889.038	75.5398
16.2729	896.616	75.6082
16.2798	900.87	75.6765
16.2844	899.4986	75.7449
16.28875	899.433	75.8132
16.2958	898.555	75.8816
16.3005	893.3775	75.95
16.3074	889.91	76.0183
16.3121	888.347	76.08667
16.318	885.089	76.155
16.3248	886.18	76.2234
16.33	891.696	76.2917
16.3349	895.3988	76.3601
16.3417	896.678	76.4285
16.3472	897.737	76.4968
16.3533	895.471	76.5652
16.3578	894.019	76.6335
16.3646	891.167	76.7019
16.3704	886.421	76.7703
16.3751	881.1662	76.8386
16.38093	880.92	76.907
16.3863	884.948	76.9753
16.3924	888.51	77.0437
16.3986	890.511	77.1121
16.4033	893.854	77.18042
16.4093	892.1637	77.2488
16.4151	889.6922	77.3171
16.4216	886.413	77.3855
16.4329	-92.1528	77.4539
16.4347	-55.6259	77.5222
16.4386	-57.8428	77.5906
16.4444	-54.0486	77.6589
16.4502	-50.4456	77.7273
16.4562	-47.3096	77.7957
16.4601	-42.6917	77.864
16.46699	-39.6136	77.9324
16.4729	-41.968	78.0007
16.4783	-43.245	78.0691
16.4837	-45.4735	78.1375
16.4901	-52.5787	78.2058
16.4945	-57.6701	78.27417
16.5002	-54.8202	78.3425
16.5069	-51.6309	78.4109
16.5124	-51.175	78.4792
16.5179	-45.8887	78.5476
16.5237	-42.6603	78.616
16.5297	-42.9729	78.6843
16.5354	-42.197	78.7527
16.5408	-43.9524	78.821
16.5462	-48.967	78.8894
16.5517	-57.403	78.9578
16.5584	-54.5879	79.0261
16.563	-52.2789	79.0945
16.5695	-54.6572	79.1628
16.5754	-48.7884	79.2312
16.5818	-43.3919	79.2996
16.5859	-42.055	79.36792
16.5926	-42.3304	79.4363
16.59782	-41.6964	79.5046
16.60334	-48.411	79.573
16.6084	-54.0732	79.6414
16.6146	-54.6281	79.7097
16.62063	-55.4186	79.7781
16.6262	-56.8455	79.8464
16.6312	-52.9684	79.9148
16.63751	-47.0253	79.9832
16.6401	-48.8067	80.0125

Data Header:			0.254_hd_uprint_typei_4545_r0			Time:	80.073	s	4/15/2019 4:21:35 PM
Data Acquisition:	Timed
Station Name:	ft40.cfg
Test File Name:	monotonic_0.2540_typei_hd_4545_uprint.tst
Displacement	Force	Running Time
mm	N	s
16.6405	-52.118	80.0222
16.6423	-54.9096	80.032
16.6431	-52.4815	80.0417
16.6443	-44.8998	80.0515
16.6444	-41.93708	80.0613