Folder: Stress_Strain_Analysis_Tools/data/processed_data_files/tensile (part 52)

File: 0.254_solid_uprint_typeiv_090_r(8).dat
MTS793|BTW|ENU|1|2|.|/|:|1|0|0|A

Data Header:			0.254_solid_uprint_typeiv_090_r0			Time:	20.019	s	4/14/2019 1:17:22 AM
Data Acquisition:	Timed
Station Name:	ft40.cfg
Test File Name:	monotonic_0.2540_typeiv_solid_090_uprint.tst
Displacement	Force	Running Time
mm	N	s
-40.0408	-149.5399	0.0227051
-40.0407	-151.723	0.0910645
-40.036	-148.19	0.159424
-40.0292	-140.798	0.2277832
-40.0248	-137.307	0.296143
-40.0176	-135.855	0.364502
-40.0127	-131.883	0.432861
-40.0061	-129.893	0.5012207
-40.0005	-129.119	0.56958
-39.9956	-124.576	0.637939
-39.9894	-119.532	0.706299
-39.9834	-117.701	0.7746582
-39.9776	-113.262	0.843018
-39.9719	-102.9057	0.911377
-39.9652	-99.3135	0.979736
-39.9612	-98.2158	1.0481
-39.9559	-93.5406	1.11646
-39.9485	-93.6157	1.18481
-39.943	-91.47551	1.25317
-39.93729	-88.4666	1.32153
-39.9322	-83.2786	1.38989
-39.9262	-83.5642	1.458252
-39.92046	-77.8598	1.52661
-39.9154	-67.5523	1.59497
-39.9095	-64.391	1.66333
-39.9034	-61.8909	1.73169
-39.8985	-57.7695	1.80005
-39.8929	-56.132	1.86841
-39.887	-55.2151	1.93677
-39.8814	-52.6824	2.005127
-39.875	-49.006	2.07349
-39.8689	-49.98349	2.14185
-39.8632	-43.70686	2.21021
-39.8579	-32.79	2.27856
-39.8518	-32.7676	2.34692
-39.8465	-27.5266	2.41528
-39.8408	-22.322	2.48364
-39.834	-22.7925	2.552002
-39.8292	-20.5735	2.62036
-39.8238	-16.98774	2.68872
-39.8179	-15.2146	2.75708
-39.8125	-16.4161	2.82544
-39.8064	-8.55525	2.8938
-39.8018	-2.88554	2.96216
-39.7954	1.51399	3.03052
-39.7887	8.80713	3.098877
-39.7844	13.1522	3.16724
-39.7779	14.806	3.2356
-39.7731	15.68158	3.30396
-39.7672	18.0423	3.37231
-39.7615	17.8667	3.44067
-39.75481	20.9876	3.50903
-39.7501	26.0939	3.57739
-39.7453	32.6429	3.645752
-39.738	35.25613	3.71411
-39.7326	41.7636	3.78247
-39.72736	46.4494	3.85083
-39.7214	51.847	3.91919
-39.7161	51.7022	3.98755
-39.7095	54.92384	4.05591
-39.7047	53.6579	4.12427
-39.6994	56.1595	4.192627
-39.6938	61.2252	4.26099
-39.6867	65.31636	4.32935
-39.6821	69.8087	4.39771
-39.6757	75.1859	4.46606
-39.6702	78.8053	4.53442
-39.6644	85.67572	4.60278
-39.6591	88.7935	4.67114
-39.6529	89.1947	4.739502
-39.6493	89.5469	4.80786
-39.6407	90.0897	4.87622
-39.6357	95.1814	4.94458
-39.62949	99.6782	5.01294
-39.6251	101.658	5.0813
-39.6199	108.601	5.14966
-39.6143	111.629	5.21802
-39.6068	119.013	5.286377
-39.6022	122.892	5.35474
-39.5959	125.118	5.4231
-39.5904	123.528	5.49146
-39.5846	126.542	5.55981
-39.5789	130.671	5.62817
-39.5734	132.3114	5.69653
-39.5668	136.844	5.76489
-39.5621	140.326	5.833252
-39.5569	143.64	5.90161
-39.5511	151.12	5.96997
-39.5446	156.385	6.03833
-39.5391	155.752	6.10669
-39.5347	157.312	6.17505
-39.5274	163.438	6.24341
-39.522	164.43	6.31177
-39.5171	165.334	6.380127
-39.5111	170.52	6.44849
-39.5057	171.173	6.51685
-39.49876	178.043	6.58521
-39.4934	182.963	6.65356
-39.4886	188.613	6.72192
-39.48262	190.077	6.79028
-39.47633	191.751	6.85864
-39.4715	198.443	6.927002
-39.4656	198.317	6.99536
-39.4591	199.29	7.06372
-39.45322	202.843	7.13208
-39.448	206.111	7.20044
-39.4426	208.966	7.2688
-39.4374	216.538	7.33716
-39.4301	220.869	7.40552
-39.4251	220.235	7.473877
-39.4197	225.233	7.54224
-39.414	232.36	7.6106
-39.40797	233.123	7.67896
-39.4029	231.285	7.74731
-39.3971	236.413	7.81567
-39.3912	234.864	7.88403
-39.3859	240.405	7.95239
-39.3803	245.864	8.020752
-39.3736	250.249	8.08911
-39.3694	251.632	8.15747
-39.3628	255.786	8.22583
-39.35709	263.922	8.29419
-39.35149	264.734	8.36255
-39.3458	263.968	8.43091
-39.3399	268.275	8.49927
-39.33419	267.735	8.567627
-39.3293	271.365	8.63599
-39.3237	274.464	8.70435
-39.3157	278.428	8.77271
-39.31192	280.134	8.84106
-39.3059	286.6954	8.90942
-39.2988	295.064	8.97778
-39.2938	294.768	9.04614
-39.2891	296.878	9.114502
-39.2827	299.515	9.18286
-39.2773	298.219	9.25122
-39.2714	299.365	9.31958
-39.26635	304.529	9.38794
-39.2599	305.495	9.4563
-39.2535	309.334	9.52466
-39.2481	315.402	9.59302
-39.2436	323.81	9.661377
-39.2378	322.191	9.72974
-39.2312	326.134	9.7981
-39.2259	330.228	9.86646
-39.2201	329.38	9.93481
-39.2145	329.227	10.0032
-39.2085	333.539	10.0715
-39.2042	334.339	10.1399
-39.19743	335.551	10.2083
-39.1924	344.837	10.2766
-39.1866	349.683	10.345
-39.18119	352.004	10.41333
-39.1751	354.744	10.4817
-39.16909	357.542	10.55
-39.1631	356.816	10.6184
-39.1581	358.374	10.6868
-39.1524	360.34	10.7551
-39.1466	359.194	10.8235
-39.1405	362.192	10.8918
-39.1349	368.315	10.9602
-39.1292	372.585	11.0286
-39.1244	376.714	11.0969
-39.1182	381.001	11.1653
-39.1122	380.853	11.2336
-39.107	383.384	11.302
-39.1009	383.617	11.3704
-39.0935	385.523	11.4387
-39.0895	384.326	11.50708
-39.0832	385.344	11.5754
-39.0778	390.854	11.6438
-39.0722	394.9491	11.7122
-39.0652	398.723	11.7805
-39.0597	401.1304	11.8489
-39.0555	404.257	11.9172
-39.05	406.062	11.9856
-39.04314	408.459	12.054
-39.038	406.149	12.1223
-39.0317	403.609	12.1907
-39.0268	407.51	12.259
-39.0202	410.96	12.3274
-39.0154	412.435	12.3958
-39.0087	416.652	12.4641
-39.0036	419.1781	12.5325
-38.99781	421.373	12.60083
-38.9933	425.564	12.6692
-38.9865	424.948	12.7375
-38.9819	422.406	12.8059
-38.9762	420.921	12.8743
-38.9708	423.164	12.9426
-38.9636	423.475	13.011
-38.95808	426.681	13.0793
-38.9528	428.613	13.1477
-38.9468	432.862	13.2161
-38.9419	435.878	13.2844
-38.93541	438.253	13.3528
-38.9303	438.938	13.4211
-38.9241	435.728	13.4895
-38.9186	433.285	13.5579
-38.9119	436.821	13.6262
-38.9077	434.823	13.69458
-38.9007	434.264	13.7629
-38.895	437.372	13.8313
-38.8886	439.9361	13.8997
-38.8841	441.447	13.968
-38.8789	445.19	14.0364
-38.8723	446.561	14.1047
-38.8672	440.735	14.1731
-38.8606	441.813	14.2415
-38.85537	445.835	14.3098
-38.8496	442.239	14.3782
-38.845	438.832	14.4465
-38.838	442.66	14.5149
-38.8339	441.868	14.5833
-38.82724	444.254	14.6516
-38.8207	447.756	14.72
-38.8153	448.667	14.78833
-38.8106	445.52	14.8567
-38.8041	446.884	14.925
-38.7992	447.9827	14.9934
-38.7938	441.416	15.0618
-38.788	442.003	15.1301
-38.7806	443.6937	15.1985
-38.776	442.19	15.2668
-38.7703	443.808	15.3352
-38.7644	449.1691	15.4036
-38.7597	448.008	15.4719
-38.7542	444.405	15.5403
-38.7483	446.673	15.6086
-38.7416	447.88	15.677
-38.73687	443.925	15.7454
-38.7302	442.59	15.8137
-38.7247	441.374	15.88208
-38.71896	441.441	15.9504
-38.7131	440.91	16.0188
-38.70789	443.926	16.0872
-38.7023	443.672	16.1555
-38.6969	442.593	16.2239
-38.6913	445.175	16.2922
-38.6844	447.246	16.3606
-38.6786	443.208	16.429
-38.6722	441.762	16.4973
-38.6673	439.648	16.5657
-38.6619	437.862	16.634
-38.6569	438.419	16.7024
-38.6511	441.115	16.7708
-38.6452	438.989	16.8391
-38.6393	440.014	16.9075
-38.6342	442.744	16.97583
-38.6279	442.935	17.0442
-38.6217	440.54	17.1125
-38.6169	439.521	17.1809
-38.6109	438.092	17.2493
-38.6051	437.43	17.3176
-38.5991	435.6012	17.386
-38.5938	434.893	17.4543
-38.58812	433.723	17.5227
-38.5824	435.661	17.5911
-38.5758	440.107	17.6594
-38.5704	440.5556	17.7278
-38.5645	440.125	17.7961
-38.5597	439.047	17.8645
-38.5533	435.301	17.9329
-38.5474	434.234	18.0012
-38.54163	432.711	18.06958
-38.5375	432.567	18.1379
-38.5322	431.111	18.2063
-38.526	434.028	18.2747
-38.5217	438.042	18.343
-38.5133	438.691	18.4114
-38.5079	439.0199	18.4797
-38.5035	438.265	18.5481
-38.4973	434.33	18.6165
-38.4915	435.205	18.6848
-38.4843	432.627	18.7532
-38.4803	428.761	18.8215
-38.4751	426.313	18.8899
-38.4679	431.549	18.9583
-38.4624	433.824	19.0266
-38.45694	433.675	19.095
[...]
-38.0893	426.876	23.509
-38.0869	430.178	23.53833
-38.0849	423.576	23.5676
-38.0813	431.717	23.5969
-38.0785	425.979	23.6262
-38.0764	426.859	23.6555
-38.0751	426.8808	23.6848
-38.0721	428.61	23.7141
-38.0699	428.118	23.7434
-38.0673	421.983	23.7727
-38.06509	428.932	23.802
-38.0617	424.497	23.8313
-38.0606	431.2	23.8606
-38.0574	422.234	23.8899
-38.0546	431.164	23.9192
-38.0525	422.951	23.9485
-38.0495	427.875	23.9778
-38.0474	419.557	24.00708
-38.0444	430.963	24.0364
-38.042	423.079	24.0657
-38.0403	427.999	24.095
-38.0386	423.35	24.1243
-38.0346	426.384	24.1536
-38.0335	423.143	24.1829
-38.0308	425.0007	24.2122
-38.0288	428.222	24.2415
-38.0251	423.8483	24.2708
-38.0233	427.36	24.3
-38.0207	419.851	24.3293
-38.0177	431.222	24.3586
-38.016	418.712	24.3879
-38.0127	429.762	24.4172
-38.011	422.8439	24.4465
-38.0086	430.71	24.47583
-38.0069	420.36	24.5051
-38.0038	427.245	24.5344
-38.0002	422.4903	24.5637
-37.9988	427.202	24.593
-37.9957	419.834	24.6223
-37.9944	425.6022	24.6516
-37.9913	423.719	24.6809
-37.9891	421.079	24.7102
-37.986	421.537	24.7395
-37.9835	421.458	24.7688
-37.9814	426.675	24.7981
-37.9797	419.062	24.8274
-37.97847	422.869	24.8567
-37.9743	418.481	24.886
-37.9721	425.0192	24.9153
-37.9705	416.849	24.94458
-37.9671	422.948	24.9739
-37.9656	420.271	25.0032
-37.96228	422.32	25.0325
-37.9609	418.369	25.0618
-37.9578	418.282	25.0911
-37.9555	419.536	25.1204
-37.9518	419.585	25.1497
-37.9505	418.69	25.179
-37.9471	415.956	25.2083
-37.9445	416.809	25.2375
-37.942	408.973	25.2668
-37.9407	412.139	25.2961
-37.9336	-9.312	25.3254
-37.93335	-37.9846	25.3547
-37.9321	-46.4004	25.384
-37.9303	-37.9327	25.41333
-37.9271	-45.1018	25.4426
-37.9246	-41.6445	25.4719
-37.9232	-43.8509	25.5012
-37.9203	-39.7063	25.5305
-37.9176	-42.046	25.5598
-37.9146	-46.2837	25.5891
-37.9127	-40.7136	25.6184
-37.9106	-43.6755	25.6477
-37.9073	-39.36937	25.677
-37.9063	-48.7727	25.7063
-37.9025	-38.4901	25.7356
-37.8998	-46.05378	25.7649
-37.8977	-39.4645	25.7942
-37.8966	-50.1831	25.8235
-37.8928	-38.52232	25.8528
-37.8916	-44.6566	25.88208
-37.88858	-39.5607	25.9114
-37.8859	-47.0263	25.9407
-37.8833	-39.8355	25.97
-37.8814	-44.5765	25.9993
-37.8795	-41.75861	26.0286
-37.8763	-40.4743	26.0579
-37.8734	-43.2988	26.0872
-37.8715	-41.9801	26.1165
-37.8688	-44.6483	26.1458
-37.8666	-39.2314	26.175
-37.8642	-46.6352	26.2043
-37.8614	-39.3673	26.2336
-37.8596	-44.7363	26.2629
-37.8575	-37.4678	26.2922
-37.8548	-47.6857	26.3215
-37.8515	-39.831	26.35083
-37.8497	-44.1945	26.3801
-37.8468	-39.1226	26.4094
-37.8454	-47.1325	26.4387
-37.8423	-39.5997	26.468
-37.8406	-42.4208	26.4973
-37.8373	-43.5589	26.5266
-37.8354	-45.5028	26.5559
-37.8326	-44.4511	26.5852
-37.8297	-38.7549	26.6145
-37.8288	-44.6549	26.6438
-37.8248	-41.4669	26.6731
-37.8228	-44.176	26.7024
-37.8202	-40.1137	26.7317
-37.81715	-47.8561	26.761
-37.8157	-39.903	26.7903
-37.81424	-43.5933	26.81958
-37.8102	-40.0941	26.8489
-37.8088	-45.9793	26.8782
-37.80624	-41.2025	26.9075
-37.8031	-44.0603	26.9368
-37.80106	-41.4033	26.9661
-37.7993	-41.0608	26.9954
-37.7951	-40.5849	27.0247
-37.793	-41.9968	27.054
-37.7922	-44.0499	27.0833
-37.78912	-40.1793	27.1125
-37.7862	-43.816	27.1418
-37.7839	-41.6743	27.1711
-37.7817	-43.8843	27.2004
-37.7784	-36.8167	27.2297
-37.7756	-45.1813	27.259
-37.7752	-42.556	27.28833
-37.771	-45.1341	27.3176
-37.7695	-38.6011	27.3469
-37.7666	-42.415	27.3762
-37.7644	-43.4821	27.4055
-37.7621	-42.5476	27.4348
-37.75983	-41.871	27.4641
-37.7558	-42.6727	27.4934
-37.75391	-46.9886	27.5227
-37.7523	-38.8711	27.552
-37.7503	-42.9689	27.5813
-37.7479	-39.9802	27.6106
-37.7454	-48.5883	27.6399
-37.7426	-37.8726	27.6692

File: 0.254_solid_uprint_typeiv_090_r(9).dat
MTS793|BTW|ENU|1|2|.|/|:|1|0|0|A

Data Header:			0.254_solid_uprint_typeiv_090_r0			Time:	20.0176	s	4/14/2019 1:22:42 AM
Data Acquisition:	Timed
Station Name:	ft40.cfg
Test File Name:	monotonic_0.2540_typeiv_solid_090_uprint.tst
Displacement	Force	Running Time
mm	N	s
-40.0404	-321.112	0.0227051
-40.0414	-317.691	0.0910645
-40.0346	-316.234	0.159424
-40.0292	-312.671	0.2277832
-40.0238	-306.788	0.296143
-40.0176	-304.151	0.364502
-40.0121	-297.742	0.432861
-40.0082	-291.964	0.5012207
-40.0014	-288.809	0.56958
-39.9951	-290.311	0.637939
-39.9903	-285.654	0.706299
-39.9846	-281.113	0.7746582
-39.9785	-281.246	0.843018
-39.9723	-278.617	0.911377
-39.9677	-270.753	0.979736
-39.9615	-269.239	1.0481
-39.9559	-262.99	1.11646
-39.9497	-256.298	1.18481
-39.9457	-254.534	1.25317
-39.9394	-252.344	1.32153
-39.9324	-250.637	1.38989
-39.9272	-244.8839	1.458252
-39.9225	-244.347	1.52661
-39.9151	-242.968	1.59497
-39.91	-236.56	1.66333
-39.9047	-235.497	1.73169
-39.8992	-227.589	1.80005
-39.8929	-223.469	1.86841
-39.8875	-217.904	1.93677
-39.882	-217.549	2.005127
-39.8759	-215.092	2.07349
-39.8706	-206.924	2.14185
-39.865	-207.952	2.21021
-39.8587	-206.204	2.27856
-39.8536	-201.333	2.34692
-39.8488	-198.95	2.41528
-39.8416	-195.381	2.48364
-39.8364	-189.442	2.552002
-39.8309	-184.815	2.62036
-39.8251	-184.212	2.68872
-39.8194	-179.336	2.75708
-39.8133	-171.45	2.82544
-39.8086	-169.399	2.8938
-39.8012	-170.109	2.96216
-39.7969	-165.47	3.03052
-39.7907	-165.635	3.098877
-39.78529	-160.154	3.16724
-39.7786	-156.224	3.2356
-39.7742	-151.33	3.30396
-39.7679	-148.788	3.37231
-39.7618	-144.879	3.44067
-39.756	-134.837	3.50903
-39.7504	-134.492	3.57739
-39.7456	-131.681	3.645752
-39.7397	-130.603	3.71411
-39.7338	-128.003	3.78247
-39.7289	-126.21	3.85083
-39.7228	-120.565	3.91919
-39.7156	-115.637	3.98755
-39.7107	-112.832	4.05591
-39.7048	-109.619	4.12427
-39.6992	-99.7391	4.192627
-39.69479	-98.087	4.26099
-39.68898	-95.6457	4.32935
-39.6817	-93.0531	4.39771
-39.6775	-91.46965	4.46606
-39.672	-88.3775	4.53442
-39.66441	-86.7189	4.60278
-39.6584	-81.9156	4.67114
-39.6551	-79.4368	4.739502
-39.6489	-74.0829	4.80786
-39.6424	-66.234	4.87622
-39.6361	-62.2216	4.94458
-39.6311	-60.112	5.01294
-39.6262	-57.6095	5.0813
-39.6189	-56.2627	5.14966
-39.6138	-53.6169	5.21802
-39.6092	-50.7703	5.286377
-39.6024	-48.768	5.35474
-39.5961	-46.4513	5.4231
-39.5919	-39.5439	5.49146
-39.5857	-31.8251	5.55981
-39.5792	-27.7176	5.62817
-39.5737	-24.8943	5.69653
-39.5691	-21.0487	5.76489
-39.563	-21.9921	5.833252
-39.55735	-19.1864	5.90161
-39.5514	-16.3604	5.96997
-39.546	-13.0609	6.03833
-39.5405	-14.2477	6.10669
-39.5344	-6.26707	6.17505
-39.5278	-0.0597196	6.24341
-39.5229	3.79247	6.31177
-39.5168	9.320673	6.380127
-39.5108	15.2696	6.44849
-39.50634	14.7383	6.51685
-39.5008	17.1766	6.58521
-39.49361	21.1616	6.65356
-39.4897	19.2636	6.72192
-39.4817	19.7514	6.79028
-39.4765	26.1719	6.85864
-39.4728	36.066	6.927002
-39.4657	37.6308	6.99536
-39.46	43.6254	7.06372
-39.4546	49.0865	7.13208
-39.4483	49.8779	7.20044
-39.4432	53.1474	7.2688
-39.43779	56.6784	7.33716
-39.4315	56.9776	7.40552
-39.4259	52.5302	7.473877
-39.421	60.8826	7.54224
-39.4147	69.9493	7.6106
-39.4086	73.3203	7.67896
-39.4031	78.0757	7.74731
-39.3976	82.73037	7.81567
-39.3916	85.0695	7.88403
-39.3861	88.4783	7.95239
-39.3801	91.5625	8.020752
-39.3758	90.8261	8.08911
-39.3694	88.6545	8.15747
-39.3636	92.7388	8.22583
-39.35754	102.066	8.29419
-39.352	104.943	8.36255
-39.34697	109.025	8.43091
-39.3423	117.066	8.49927
-39.335	121.041	8.567627
-39.32935	122.94	8.63599
-39.3239	125.737	8.70435
-39.3175	125.724	8.77271
-39.3136	125.246	8.84106
-39.3069	129.422	8.90942
-39.3014	135.215	8.97778
-39.2954	137.086	9.04614
-39.2896	141.744	9.114502
-39.2836	148.672	9.18286
-39.2781	153.3658	9.25122
-39.2724	157.452	9.31958
-39.267	159.827	9.38794
-39.2612	159.999	9.4563
-39.2543	160.175	9.52466
-39.2488	161.635	9.59302
-39.2433	166.112	9.661377
-39.2382	167.446	9.72974
-39.2336	174.795	9.7981
-39.227	180.172	9.86646
-39.2205	184.104	9.93481
-39.2155	189.739	10.0032
-39.2106	193.714	10.0715
-39.2038	192.512	10.1399
-39.198	192.815	10.2083
-39.1934	197.522	10.2766
-39.1867	200.4173	10.345
-39.1812	201.5869	10.41333
-39.1764	206.8541	10.4817
-39.1702	212.187	10.55
-39.1652	216.088	10.6184
-39.158	221.421	10.6868
-39.1518	227.053	10.7551
-39.14719	225.979	10.8235
-39.142	226.282	10.8918
-39.1357	230.801	10.9602
-39.1303	234.385	11.0286
-39.12376	233.131	11.0969
-39.1191	237.732	11.1653
-39.11282	240.575	11.2336
-39.1058	245.959	11.302
-39.1025	252.881	11.3704
-39.09581	259.814	11.4387
-39.0908	258.629	11.50708
-39.0842	258.548	11.5754
-39.0793	264.163	11.6438
-39.0719	266.28	11.7122
-39.0674	265.242	11.7805
-39.0617	269.562	11.8489
-39.0555	274.4	11.9172
-39.05	277.361	11.9856
-39.044	282.5993	12.054
-39.0394	288.032	12.1223
-39.03418	289.395	12.1907
-39.0267	289.969	12.259
-39.0221	296.327	12.3274
-39.01495	298.703	12.3958
-39.0101	297.199	12.4641
-39.005	300.059	12.5325
-38.9985	303.99	12.60083
-38.9927	303.953	12.6692
-38.987	310.315	12.7375
-38.9812	316.1	12.8059
-38.9761	317.609	12.8743
-38.9697	320.051	12.9426
-38.9651	326.03	13.011
-38.9592	328.184	13.0793
-38.953	328.1265	13.1477
-38.9477	329.727	13.2161
-38.9409	331.403	13.2844
-38.9364	333.187	13.3528
-38.9301	336.666	13.4211
-38.9247	343.265	13.4895
-38.9206	345.045	13.5579
-38.91309	345.8894	13.6262
-38.9082	352.278	13.69458
-38.902	358.379	13.7629
-38.8974	355.877	13.8313
-38.8903	357.374	13.8997
-38.88554	358.6308	13.968
-38.8791	359.289	14.0364
-38.8737	362.681	14.1047
-38.8681	366.964	14.1731
-38.8625	369.1012	14.2415
-38.8575	371.697	14.3098
-38.8513	378.395	14.3782
-38.845	382.253	14.4465
-38.8403	384.227	14.5149
-38.8344	384.567	14.5833
-38.8293	383.05	14.6516
-38.82206	383.64	14.72
-38.8174	385.664	14.78833
-38.8103	391.579	14.8567
-38.8042	390.802	14.925
-38.8007	393.93	14.9934
-38.79324	401.056	15.0618
-38.7897	406.054	15.1301
-38.7819	405.858	15.1985
-38.7766	408.746	15.2668
-38.7722	407.817	15.3352
-38.7651	405.494	15.4036
-38.7595	409.468	15.4719
-38.7534	409.562	15.5403
-38.7482	410.545	15.6086
-38.7433	413.371	15.677
-38.737	420.808	15.7454
-38.7321	422.858	15.8137
-38.725	424.47	15.88208
-38.7202	426.048	15.9504
-38.7138	424.948	16.0188
-38.7075	424.312	16.0872
-38.7028	425.123	16.1555
-38.6953	426.253	16.2239
-38.6909	424.626	16.2922
-38.6872	425.709	16.3606
-38.68074	431.787	16.429
-38.6745	435.095	16.4973
-38.6686	436.372	16.5657
-38.6626	438.556	16.634
-38.6573	437.952	16.7024
-38.6527	436.053	16.7708
-38.64584	435.851	16.8391
-38.6403	435.092	16.9075
-38.6338	431.617	16.97583
-38.6283	431.524	17.0442
-38.6233	437.901	17.1125
-38.6177	440.653	17.1809
-38.6121	439.764	17.2493
-38.6055	443.548	17.3176
-38.6006	444.173	17.386
-38.59523	440.593	17.4543
-38.5881	439.656	17.5227
-38.5826	439.417	17.5911
-38.5777	434.242	17.6594
-38.5712	433.298	17.7278
-38.5674	438.95	17.7961
-38.5597	439.795	17.8645
-38.5542	438.108	17.9329
-38.5489	443.282	18.0012
-38.5438	442.046	18.06958
-38.5377	441.765	18.1379
-38.532	440.879	18.2063
-38.5266	437.352	18.2747
-38.5204	432.07	18.343
-38.5154	428.57	18.4114
-38.5093	435.0148	18.4797
-38.5044	436.057	18.5481
-38.4972	437.131	18.6165
-38.49258	437.93	18.6848
-38.4873	439.0856	18.7532
-38.4806	438.5676	18.8215
-38.4754	438.221	18.8899
-38.4692	435.716	18.9583
[...]
-38.1924	416.099	22.2786
-38.1895	424.4798	22.3079
-38.1876	420.303	22.3372
-38.1857	419.976	22.3665
-38.1824	418.097	22.3958
-38.1802	421.335	22.425
-38.1781	423.931	22.4543
-38.1758	418.184	22.4836
-38.1728	418.825	22.5129
-38.1707	420.278	22.5422
-38.168	424.59	22.5715
-38.1664	418.067	22.60083
-38.16349	422.282	22.6301
-38.1606	419.237	22.6594
-38.1582	422.417	22.6887
-38.1555	417.483	22.718
-38.1528	420.511	22.7473
-38.1514	419.67	22.7766
-38.1496	421.215	22.8059
-38.14616	418.834	22.8352
-38.1428	419.756	22.8645
-38.1405	420.808	22.8938
-38.139	418.353	22.9231
-38.1359	422.739	22.9524
-38.1342	416.8219	22.9817
-38.1316	420.407	23.011
-38.13	415.315	23.0403
-38.1273	422.938	23.06958
-38.1238	416.995	23.0989
-38.1211	421.351	23.1282
-38.1197	415.717	23.1575
-38.1166	422.736	23.1868
-38.11533	415.8465	23.2161
-38.1123	415.172	23.2454
-38.11	417.213	23.2747
-38.1087	420.517	23.304
-38.1047	419.895	23.3333
-38.1032	412.889	23.3625
-38.0995	419.696	23.3918
-38.098	415.067	23.4211
-38.0941	420.055	23.4504
-38.0921	410.213	23.4797
-38.0903	419.633	23.509
-38.0873	413.028	23.53833
-38.0848	417.355	23.5676
-38.0833	407.886	23.5969
-38.0804	416.827	23.6262
-38.0774	411.734	23.6555
-38.0746	414.562	23.6848
-38.0734	408.546	23.7141
-38.0698	411.5192	23.7434
-38.0677	406.162	23.7727
-38.0618	-60.89547	23.802
-38.0615	-41.6382	23.8313
-38.0591	-45.0423	23.8606
-38.05727	-40.86343	23.8899
-38.0545	-47.3542	23.9192
-38.0516	-41.0769	23.9485
-38.0507	-46.7247	23.9778
-38.0482	-38.9976	24.00708
-38.0457	-45.5805	24.0364
-38.0415	-38.1615	24.0657
-38.04	-47.0411	24.095
-38.0392	-40.7229	24.1243
-38.0356	-44.276	24.1536
-38.0337	-39.7047	24.1829
-38.0311	-46.24942	24.2122
-38.0291	-42.5355	24.2415
-38.0252	-42.4462	24.2708
-38.0239	-42.9474	24.3
-38.0205	-44.6199	24.3293
-38.0194	-43.837	24.3586
-38.0158	-37.3719	24.3879
-38.0145	-46.1103	24.4172
-38.011	-43.2254	24.4465
-38.0091	-47.7715	24.47583
-38.0056	-39.9138	24.5051
-38.0047	-45.4798	24.5344
-38.0022	-43.0377	24.5637
-37.9998	-43.712	24.593
-37.9972	-40.8076	24.6223
-37.9942	-44.2377	24.6516
-37.9916	-47.09166	24.6809
-37.9898	-39.9661	24.7102
-37.98727	-44.1723	24.7395
-37.9845	-41.7589	24.7688
-37.984	-45.9783	24.7981
-37.9794	-39.659	24.8274
-37.9768	-44.523	24.8567
-37.9751	-40.4452	24.886
-37.9727	-44.51054	24.9153
-37.9708	-38.5391	24.94458
-37.9683	-45.573	24.9739
-37.9646	-40.4411	25.0032
-37.9628	-45.4156	25.0325
-37.96	-42.4437	25.0618
-37.95768	-44.0455	25.0911
-37.9552	-41.6175	25.1204
-37.95311	-41.8536	25.1497
-37.9513	-45.342	25.179
-37.9496	-42.2861	25.2083
-37.9466	-41.98772	25.2375
-37.9425	-40.1025	25.2668
-37.94	-47.6825	25.2961
-37.9384	-39.4883	25.3254
-37.9354	-46.4216	25.3547
-37.9333	-38.7977	25.384
-37.9313	-51.3625	25.41333
-37.9293	-38.4317	25.4426
-37.9265	-45.7776	25.4719
-37.9245	-40.5576	25.5012
-37.9214	-48.6864	25.5305
-37.9178	-41.6577	25.5598
-37.9161	-44.45649	25.5891
-37.9136	-43.703	25.6184
-37.9122	-44.9829	25.6477
-37.9096	-40.29348	25.677
-37.90715	-40.7318	25.7063
-37.9049	-46.6875	25.7356
-37.902	-44.8482	25.7649
-37.8997	-45.1967	25.7942
-37.8966	-38.1135	25.8235
-37.8941	-45.5316	25.8528
-37.8915	-40.0226	25.88208
-37.89	-46.9885	25.9114
-37.8865	-38.8568	25.9407
-37.8852	-45.218	25.97
-37.8817	-39.3132	25.9993
-37.8796	-45.4604	26.0286
-37.8783	-40.38781	26.0579
-37.87553	-43.1092	26.0872
-37.8721	-42.9495	26.1165
-37.8708	-44.2491	26.1458
-37.8681	-42.72953	26.175
-37.8652	-38.8847	26.2043
-37.8618	-43.5082	26.2336
-37.8611	-44.2646	26.2629
-37.8581	-46.3967	26.2922
-37.855	-38.06279	26.3215
-37.85318	-45.2135	26.35083
-37.8511	-41.5555	26.3801
-37.8484	-46.1069	26.4094
-37.846	-39.4149	26.4387