Folder: Stress_Strain_Analysis_Tools/data/processed_data_files/tensile (part 53)

File: 0.254_solid_uprint_typeiv_4545_r(1).dat
MTS793|BTW|ENU|1|2|.|/|:|1|0|0|A

Data Header:			0.254_solid_uprint_typeiv_4545_r0			Time:	20.0222	s	4/13/2019 6:41:55 PM
Data Acquisition:	Timed
Station Name:	ft40.cfg
Test File Name:	Type IV_Monotonic.tst
Displacement	Force	Running Time
mm	N	s
-40.0504	-184.793	0.0258789
-40.0497	-184.703	0.0942383
-40.0439	-172.68	0.162598
-40.0386	-158.186	0.230957
-40.03281	-151.969	0.299316
-40.0274	-143.314	0.367676
-40.0213	-137.739	0.436035
-40.0153	-141.432	0.504395
-40.0105	-140.088	0.572754
-40.0046	-144.2184	0.641113
-39.9987	-146.309	0.709473
-39.9925	-146.712	0.777832
-39.9881	-137.339	0.846191
-39.98122	-125.5295	0.914551
-39.9764	-117.918	0.98291
-39.9699	-107.103	1.05127
-39.9652	-99.7333	1.11963
-39.9584	-100.18	1.18799
-39.9535	-97.8001	1.25635
-39.9476	-100.333	1.324707
-39.9421	-104.7036	1.39307
-39.9372	-108.007	1.46143
-39.9306	-98.5575	1.52979
-39.9248	-93.9339	1.59814
-39.9181	-85.12941	1.6665
-39.9146	-73.0417	1.73486
-39.9063	-63.1181	1.80322
-39.9022	-57.5042	1.871582
-39.8965	-54.98217	1.93994
-39.8908	-55.6375	2.0083
-39.8854	-63.254	2.07666
-39.8799	-67.0357	2.14502
-39.8733	-61.3271	2.21338
-39.868	-59.4007	2.28174
-39.86269	-51.797	2.3501
-39.8567	-39.0174	2.418457
-39.8511	-30.0396	2.48682
-39.8453	-20.114	2.55518
-39.8393	-15.566	2.62354
-39.8328	-15.1123	2.69189
-39.8277	-18.9047	2.76025
-39.8225	-22.5441	2.82861
-39.8163	-21.0925	2.89697
-39.8106	-21.6332	2.965332
-39.8044	-17.0801	3.03369
-39.7995	-7.32345	3.10205
-39.79398	3.86815	3.17041
-39.7878	14.7008	3.23877
-39.7819	22.7208	3.30713
-39.7763	24.8504	3.37549
-39.7707	22.7185	3.44385
-39.76445	22.5573	3.512207
-39.7597	18.9327	3.58057
-39.7544	16.8434	3.64893
-39.7472	20.1802	3.71729
-39.7422	26.0294	3.78564
-39.7369	36.9031	3.854
-39.73069	48.4571	3.92236
-39.7251	58.1835	3.99072
-39.71899	61.3445	4.059082
-39.71402	65.048	4.12744
-39.7085	64.2655	4.1958
-39.704	60.2899	4.26416
-39.6965	57.7625	4.33252
-39.6908	58.9257	4.40088
-39.6845	59.8414	4.46924
-39.6795	69.1363	4.5376
-39.6736	80.2005	4.605957
-39.6677	90.6925	4.67432
-39.6632	96.729	4.74268
-39.657	102.389	4.81104
-39.6515	104.861	4.87939
-39.6459	102.731	4.94775
-39.6399	98.4637	5.01611
-39.6358	97.3463	5.08447
-39.6284	96.1438	5.152832
-39.6235	105.851	5.22119
-39.6158	114.488	5.28955
-39.6122	122.632	5.35791
-39.60574	130.377	5.42627
-39.6005	140.612	5.49463
-39.5943	145.848	5.56299
-39.5885	144.445	5.63135
-39.5823	143.687	5.699707
-39.5776	140.524	5.76807
-39.5722	134.627	5.83643
-39.5662	140.302	5.90479
-39.5604	147.876	5.97314
-39.5544	154.133	6.0415
-39.5499	161.974	6.10986
-39.5428	174.974	6.17822
-39.537	181.821	6.246582
-39.5318	183.805	6.31494
-39.5269	184.403	6.3833
-39.51931	182.332	6.45166
-39.515	177.689	6.52002
-39.5101	177.818	6.58838
-39.5036	181.838	6.65674
-39.4986	186.118	6.7251
-39.4921	193.953	6.793457
-39.4861	210.269	6.86182
-39.4802	218.403	6.93018
-39.475	219.605	6.99854
-39.469	223.708	7.06689
-39.4639	221.871	7.13525
-39.457	218.75	7.20361
-39.4518	218.056	7.27197
-39.4457	217.584	7.340332
-39.4415	218.811	7.40869
-39.4344	226.652	7.47705
-39.431	241.921	7.54541
-39.4234	248.197	7.61377
-39.4181	256.041	7.68213
-39.4112	261.986	7.75049
-39.4057	263.071	7.81885
-39.4001	260.99	7.887207
-39.3961	259.231	7.95557
-39.38966	255.18	8.02393
-39.3829	253.867	8.09229
-39.3781	261.008	8.16064
-39.3721	271.5	8.229
-39.3676	279.037	8.29736
-39.3603	287.812	8.36572
-39.356	296.371	8.434082
-39.349	299.195	8.50244
-39.3445	300.069	8.5708
-39.3374	298.4075	8.63916
-39.3336	292.379	8.70752
-39.3276	289.473	8.77588
-39.3206	294.357	8.84424
-39.3156	302.215	8.9126
-39.3095	309.196	8.980957
-39.3041	319.252	9.04932
-39.2971	327.0321	9.11768
-39.2921	334.256	9.18604
-39.2861	336.732	9.25439
-39.2813	334.151	9.32275
-39.2741	329.752	9.39111
-39.26989	326.469	9.45947
-39.2631	328.372	9.527832
-39.2587	330.708	9.59619
-39.25161	337.543	9.66455
-39.2471	347.304	9.73291
-39.24	356.102	9.80127
-39.2353	366.429	9.86963
-39.22945	371.504	9.93799
-39.225	370.705	10.0063
-39.2187	368.028	10.0747
-39.2115	364.161	10.1431
-39.2067	365.222	10.2114
-39.2007	363.826	10.2798
-39.1954	368.972	10.3481
-39.1906	376.687	10.4165
-39.1847	384.969	10.4849
-39.1782	396.348	10.5532
-39.1736	404.9707	10.6216
-39.1673	406.185	10.6899
-39.1622	401.558	10.7583
-39.1554	404.233	10.82666
-39.1504	400.988	10.89502
-39.1445	396.855	10.9634
-39.1381	399.862	11.0317
-39.1324	405.572	11.1001
-39.1272	413.962	11.1685
-39.1213	427.1301	11.2368
-39.1158	434.003	11.3052
-39.1102	437.54	11.3735
-39.1048	438.419	11.4419
-39.0978	441.891	11.5103
-39.0928	436.055	11.5786
-39.0877	432.727	11.647
-39.0816	433.74	11.7153
-39.0756	436.049	11.7837
-39.0705	441.701	11.8521
-39.0648	452.885	11.92041
-39.0589	463.434	11.98877
-39.0533	466.784	12.0571
-39.0466	471.415	12.1255
-39.0413	477.312	12.1938
-39.0361	472.7825	12.2622
-39.0295	468.422	12.3306
-39.0255	469.509	12.3989
-39.01886	467.138	12.4673
-39.0132	471.357	12.5356
-39.00808	476.2	12.604
-39.0014	486.051	12.6724
-38.9962	490.147	12.7407
-38.9912	497.5347	12.8091
-38.9845	507.43	12.8774
-38.9792	507.044	12.9458
-38.973	504.056	13.01416
-38.9685	502.534	13.08252
-38.96262	498.576	13.1509
-38.95686	498.459	13.2192
-38.9509	504.361	13.2876
-38.944	509.2045	13.356
-38.9389	514.398	13.4243
-38.9326	525.018	13.4927
-38.9268	533.747	13.561
-38.9218	536.334	13.6294
-38.91655	534.554	13.6978
-38.9102	534.478	13.7661
-38.90411	530.346	13.8345
-38.899	527.344	13.9028
-38.89423	528.563	13.9712
-38.8878	532.239	14.0396
-38.881	535.598	14.10791
-38.8767	549.028	14.17627
-38.8717	557.499	14.2446
-38.8646	560.488	14.313
-38.859	563.495	14.3813
-38.8536	563.07	14.4497
-38.8475	559.943	14.5181
-38.8432	554.839	14.5864
-38.8354	554.966	14.6548
-38.8315	553.98	14.7231
-38.8261	555.514	14.7915
-38.8192	566.55	14.8599
-38.8134	575.186	14.9282
-38.8089	579.841	14.9966
-38.80217	586.737	15.0649
-38.7964	587.71	15.1333
-38.7908	586.06	15.20166
-38.7853	580.843	15.27002
-38.7793	578.539	15.3384
-38.77409	574.1084	15.4067
-38.768	575.935	15.4751
-38.7633	582.574	15.5435
-38.757	589.375	15.6118
-38.7505	597.76	15.6802
-38.7458	602.495	15.7485
-38.7393	604.597	15.8169
-38.7342	605.201	15.8853
-38.7292	602.815	15.9536
-38.7218	595.965	16.022
-38.7163	589.35	16.0903
-38.7115	589.868	16.1587
-38.7054	593.837	16.2271
-38.6992	596.703	16.29541
-38.695	605.67	16.36377
-38.6887	612.318	16.4321
-38.68177	616.043	16.5005
-38.6764	617.952	16.5688
-38.6718	615.711	16.6372
-38.6656	608.4776	16.7056
-38.6594	600.812	16.7739
-38.6543	599.899	16.8423
-38.649	599.4	16.9106
-38.6426	600.888	16.979
-38.6369	607.721	17.0474
-38.6314	615.784	17.1157
-38.6249	617.536	17.1841
-38.6204	623.7442	17.2524
-38.615	621.221	17.3208
-38.6089	612.713	17.38916
-38.6036	606.087	17.45752
-38.5965	602.84	17.5259
-38.5908	598.992	17.5942
-38.5849	598.416	17.6626
-38.58065	603.1662	17.731
-38.5738	610.497	17.7993
-38.56855	615.299	17.8677
-38.563	619.5564	17.936
-38.5564	620.663	18.0044
-38.5522	612.824	18.0728
-38.5453	606.272	18.1411
-38.5386	605.078	18.2095
-38.5344	597.992	18.2778
-38.5281	594.474	18.3462
-38.5238	596.32	18.4146
-38.5175	601.566	18.48291
-38.5121	605.517	18.55127
-38.506	612.869	18.6196
-38.5007	614.374	18.688
-38.4945	609.294	18.7563
-38.4892	606.634	18.8247
-38.4835	603.841	18.8931
-38.476	597.103	18.9614
-38.4718	589.237	19.0298
-38.4658	591.075	19.0981
-38.4611	592.121	19.1665
[...]
-37.78159	568.736	27.30127
-37.77795	556.768	27.3501
-37.7747	559.389	27.3989
-37.7699	572.43	27.4478
-37.7652	574.134	27.4966
-37.7619	560.7132	27.54541
-37.7582	553.5415	27.5942
-37.7536	563.1767	27.6431
-37.7492	574.541	27.6919
-37.74604	570.156	27.7407
-37.7418	556.112	27.7896
-37.7372	554.785	27.8384
-37.7334	567.245	27.8872
-37.7294	573.741	27.936
-37.7253	561.905	27.9849
-37.7221	554.316	28.0337
-37.7186	562.094	28.08252
-37.712	572.541	28.1313
-37.7092	567.951	28.1802
-37.7058	555.422	28.229
-37.7017	553.852	28.2778
-37.6965	565.816	28.32666
-37.6928	572.108	28.3755
-37.6884	563.293	28.4243
-37.6857	553.3595	28.4731
-37.6796	556.646	28.522
-37.6762	568.581	28.5708
-37.6729	568.269	28.6196
-37.6689	556.567	28.6685
-37.6637	552.137	28.7173
-37.6614	564.655	28.7661
-37.6564	572.266	28.8149
-37.652	562.378	28.86377
-37.648	552.665	28.9126
-37.6432	557.1908	28.9614
-37.6388	568.179	29.0103
-37.6355	568.538	29.0591
-37.6322	556.448	29.10791
-37.6284	551.906	29.1567
-37.623	561.134	29.2056
-37.6199	569.528	29.2544
-37.61607	564.4826	29.3032
-37.6113	553.3631	29.3521
-37.6074	554.993	29.4009
-37.6033	568.563	29.4497
-37.5988	571.845	29.4985
-37.5955	556.93	29.5474
-37.5905	548.753	29.5962
-37.5885	559.273	29.64502
-37.58345	570.178	29.6938
-37.5795	563.948	29.7427
-37.5742	550.785	29.7915
-37.5711	551.947	29.8403
-37.5664	564.968	29.88916
-37.56258	567.546	29.938
-37.5579	556.344	29.9868
-37.5549	549.224	30.0356
-37.5507	556.545	30.0845
-37.545	568.331	30.1333
-37.542	566.262	30.1821
-37.5393	551.903	30.231
-37.5344	546.399	30.2798
-37.5303	560.2016	30.3286
-37.52607	566.959	30.3774
-37.5215	559.699	30.42627
-37.518	545.462	30.4751
-37.513	552.886	30.5239
-37.5081	565.921	30.5728
-37.50642	565.91	30.6216
-37.5022	550.222	30.67041
-37.4977	544.689	30.7192
-37.49308	558.097	30.7681
-37.489	567.91	30.8169
-37.4857	562.261	30.8657
-37.4807	548.23	30.9146
-37.4763	548.349	30.9634
-37.4742	561.442	31.0122
-37.46899	566.228	31.061
-37.4659	552.182	31.1099
-37.4601	545.386	31.1587
-37.4572	553.411	31.20752
-37.4531	567.675	31.2563
-37.4486	561.727	31.3052
-37.4446	545.58	31.354
-37.4402	544.323	31.4028
-37.4364	558.563	31.45166
-37.4325	566.535	31.5005
-37.4285	554.607	31.5493
-37.4248	543.485	31.5981
-37.4203	548.112	31.647
-37.4157	561.207	31.6958
-37.4119	561.815	31.7446
-37.4072	546.529	31.7935
-37.4041	541.775	31.8423
-37.3999	554.386	31.8911
-37.3958	562.163	31.9399
-37.39119	553.793	31.98877
-37.3869	539.725	32.0376
-37.3841	542.039	32.0864
-37.3794	557.922	32.1353
-37.3757	558.665	32.1841
-37.3711	546.7793	32.23291
-37.3679	539.667	32.2817
-37.3623	548.819	32.3306
-37.3583	556.058	32.3794
-37.3553	551.2876	32.4282
-37.35231	537.384	32.4771
-37.3469	538.42	32.5259
-37.3427	549.677	32.5747
-37.3398	554.422	32.6235
-37.3346	543.0694	32.6724
-37.3306	530.282	32.7212
-37.32864	536.268	32.77002
-37.3221	544.138	32.8188
-37.3184	538.423	32.8677
-37.3119	-68.8339	32.9165
-37.3089	-48.9827	32.9653
-37.3053	-37.19878	33.01416
-37.3014	-31.5542	33.063
-37.2981	-42.1525	33.1118
-37.2925	-50.6855	33.1606
-37.2897	-48.5639	33.2095
-37.2847	-36.0328	33.2583
-37.2812	-33.6335	33.3071
-37.27702	-43.7269	33.356
-37.2731	-51.2439	33.4048
-37.2698	-42.9671	33.4536
-37.2657	-33.5248	33.5024
-37.2623	-37.3959	33.55127
-37.2578	-48.8078	33.6001
-37.2528	-46.9379	33.6489
-37.24987	-35.44252	33.6978
-37.24641	-33.794	33.7466
-37.2409	-45.2014	33.79541
-37.2372	-51.3601	33.8442
-37.2323	-45.4548	33.8931
-37.2291	-34.5959	33.9419
-37.2244	-36.4795	33.9907
-37.2214	-47.9609	34.0396
-37.2165	-49.547	34.0884
-37.212	-38.35	34.1372
-37.2085	-34.2063	34.186
-37.2026	-42.7654	34.2349
-37.20335	-34.2112	34.2446

File: 0.254_solid_uprint_typeiv_4545_r(2).dat
MTS793|BTW|ENU|1|2|.|/|:|1|0|0|A

Data Header:			0.254_solid_uprint_typeiv_4545_r0			Time:	20.0176	s	4/13/2019 6:47:48 PM
Data Acquisition:	Timed
Station Name:	ft40.cfg
Test File Name:	Type IV_Monotonic.tst
Displacement	Force	Running Time
mm	N	s
-40.0453	6.01632	0.0227051
-40.0458	6.55177	0.0910645
-40.0403	9.77348	0.159424
-40.0337	12.47331	0.2277832
-40.0295	14.93812	0.296143
-40.0229	22.30237	0.364502
-40.0166	29.6039	0.432861
-40.0111	33.4526	0.5012207
-40.0046	35.7483	0.56958
-39.9997	40.1462	0.637939
-39.9939	42.0354	0.706299
-39.9902	44.5123	0.7746582
-39.9823	46.6547	0.843018
-39.9776	48.0907	0.911377
-39.9716	51.8011	0.979736
-39.9664	57.79163	1.0481
-39.9603	64.2629	1.11646
-39.95425	68.2202	1.18481
-39.9492	73.81205	1.25317
-39.9436	76.4851	1.32153
-39.9387	78.8885	1.38989
-39.9319	81.4673	1.458252
-39.9251	84.7714	1.52661
-39.9201	84.9434	1.59497
-39.9144	83.8185	1.66333
-39.9093	92.5328	1.73169
-39.9027	98.76857	1.80005
-39.8974	102.9865	1.86841
-39.8926	109.3374	1.93677
-39.8859	115.152	2.005127
-39.8796	114.26	2.07349
-39.8745	118.333	2.14185
-39.8692	121.945	2.21021
-39.86396	121.913	2.27856
-39.8571	119.487	2.34692
-39.8522	126.7402	2.41528
-39.847	134.971	2.48364
-39.8412	137.171	2.552002
-39.8356	142.132	2.62036
-39.8303	148.201	2.68872
-39.8234	150.387	2.75708
-39.8175	154.342	2.82544
-39.811	156.99	2.8938
-39.8066	157.968	2.96216
-39.8007	156.125	3.03052
-39.796	160.341	3.098877
-39.7903	168.119	3.16724
-39.7844	170.899	3.2356
-39.7778	174.799	3.30396
-39.771	182.665	3.37231
-39.7664	186.783	3.44067
-39.7604	188.71	3.50903
-39.7541	193.2718	3.57739
-39.74942	193.15	3.645752
-39.7449	192.728	3.71411
-39.73819	195.597	3.78247
-39.73175	202.328	3.85083
-39.7267	203.623	3.91919
-39.7196	209.102	3.98755
-39.7147	214.558	4.05591
-39.7092	218.666	4.12427
-39.7036	225.682	4.192627
-39.6981	228.088	4.26099
-39.693	228.468	4.32935
-39.6871	226.284	4.39771
-39.68121	230.661	4.46606
-39.6745	233.343	4.53442
-39.6697	235.932	4.60278
-39.6637	242.638	4.67114
-39.6575	247.432	4.739502
-39.6528	250.975	4.80786
-39.6472	257.306	4.87622
-39.6412	262.215	4.94458
-39.63567	262.302	5.01294
-39.6301	261.067	5.0813
-39.6236	265.603	5.14966
-39.6187	270.584	5.21802
-39.6137	268.447	5.286377
-39.6072	272.6235	5.35474
-39.6009	279.921	5.4231
-39.596	282.962	5.49146
-39.5886	289.246	5.55981
-39.5841	295.3688	5.62817
-39.5787	296.682	5.69653
-39.5726	294.808	5.76489
-39.5672	297.307	5.833252
-39.5608	302	5.90161
-39.5557	300.613	5.96997
-39.5505	304.334	6.03833
-39.5449	308.646	6.10669
-39.5388	314.45	6.17505
-39.5324	319.841	6.24341
-39.5278	325.514	6.31177
-39.5226	328.324	6.380127
-39.5152	327.845	6.44849
-39.5106	329.118	6.51685
-39.5037	335.079	6.58521
-39.4991	333.014	6.65356
-39.4927	335.0679	6.72192
-39.4885	338.139	6.79028
-39.4831	342.379	6.85864
-39.4756	347.035	6.927002
-39.4715	353.7912	6.99536
-39.4644	356.99	7.06372
-39.4584	357.512	7.13208
-39.4533	361.725	7.20044
-39.448	364.528	7.2688
-39.44223	363.295	7.33716
-39.4369	365.13	7.40552
-39.4308	368.35	7.473877
-39.4254	368.782	7.54224
-39.4188	377.806	7.6106
-39.41354	382.45	7.67896
-39.4078	385.102	7.74731
-39.4008	386.743	7.81567
-39.3965	391.197	7.88403
-39.3911	395.282	7.95239
-39.3846	393.994	8.020752
-39.3796	394.54	8.08911
-39.3737	397.961	8.15747
-39.36747	397.724	8.22583
-39.3607	402.92	8.29419
-39.3561	408.762	8.36255
-39.3511	413.235	8.43091
-39.3461	414.278	8.49927
-39.3399	419.1871	8.567627
-39.3332	424.128	8.63599
-39.3288	422.514	8.70435
-39.322	422.745	8.77271
-39.31506	424.2984	8.84106
-39.3115	425.331	8.90942
-39.3045	429.614	8.97778
-39.3006	434.264	9.04614
-39.29427	437.836	9.114502
-39.28878	437.448	9.18286
-39.28257	444.863	9.25122
-39.2766	449.471	9.31958
-39.2708	449.597	9.38794
-39.2658	448.415	9.4563
-39.2598	449.958	9.52466
-39.2559	450.112	9.59302
-39.2488	453.128	9.661377
-39.2431	455.873	9.72974
-39.2368	458.483	9.7981
-39.2305	461.771	9.86646
-39.2246	467.035	9.93481
-39.2195	472.921	10.0032
-39.2143	473.088	10.0715
-39.2093	474.167	10.1399
-39.2033	474.62	10.2083
-39.1961	473.331	10.2766
-39.1916	476.397	10.345
-39.1868	477.927	10.41333
-39.1802	479.732	10.4817
-39.1739	480.976	10.55
-39.1684	486.19	10.6184
-39.1622	492.772	10.6868
-39.1568	493.773	10.7551
-39.1516	496.19	10.8235
-39.14571	495.929	10.8918
-39.1387	492.2948	10.9602
-39.1343	496.048	11.0286
-39.1293	497.379	11.0969
-39.1229	496.2478	11.1653
-39.1179	496.363	11.2336
-39.1115	503.853	11.302
-39.1051	509.484	11.3704
-39.1007	509.5415	11.4387
-39.094	513.497	11.50708
-39.08857	514.414	11.5754
-39.0831	512.434	11.6438
-39.0773	513.428	11.7122
-39.0711	513.2821	11.7805
-39.0657	512.188	11.8489
-39.06036	511.83	11.9172
-39.0542	517.851	11.9856
-39.049	522.483	12.054
-39.0433	523.309	12.1223
-39.038	524.232	12.1907
-39.0309	528.035	12.259
-39.02673	526.554	12.3274
-39.0204	525.504	12.3958
-39.0158	526.198	12.4641
-39.0092	524.906	12.5325
-39.0038	523.839	12.60083
-38.9965	527.671	12.6692
-38.9915	532.525	12.7375
-38.98587	532.285	12.8059
-38.9814	534.9455	12.8743
-38.9748	536.932	12.9426
-38.9687	538.016	13.011
-38.9634	537.088	13.0793
-38.958	537.139	13.1477
-38.9527	536.2041	13.2161
-38.9453	532.784	13.2844
-38.9397	534.19	13.3528
-38.9353	538.067	13.4211
-38.9298	537.977	13.4895
-38.9236	539.877	13.5579
-38.9184	545.464	13.6262
-38.913	545.756	13.69458
-38.9072	546.319	13.7629
-38.9018	545.254	13.8313
-38.8952	540.518	13.8997
-38.8891	537.052	13.968
-38.88446	539.3941	14.0364
-38.878	542.866	14.1047
-38.8723	541.174	14.1731
-38.8664	544.723	14.2415
-38.8619	547.683	14.3098
-38.8554	548.3092	14.3782
-38.8493	550.374	14.4465
-38.8441	549.166	14.5149
-38.8383	545.793	14.5833
-38.8319	541.211	14.6516
-38.82658	543.822	14.72
-38.8215	543.5434	14.78833
-38.816	542.801	14.8567
-38.8098	547.148	14.925
-38.8041	550.11	14.9934
-38.7982	548.818	15.0618
-38.7928	550.011	15.1301
-38.787	551.803	15.1985
-38.7816	547.281	15.2668
-38.7756	543.2019	15.3352
-38.7695	543.922	15.4036
-38.76368	544.732	15.4719
-38.7578	540.605	15.5403
-38.7528	542.506	15.6086
-38.7465	546.797	15.677
-38.7406	547.339	15.7454
-38.73571	551.337	15.8137
-38.7296	550.485	15.88208
-38.7244	546.503	15.9504
-38.7176	543.651	16.0188
-38.7137	543.772	16.0872
-38.7074	543.789	16.1555
-38.7005	540.168	16.2239
-38.6962	542.214	16.2922
-38.6902	542.188	16.3606
-38.6849	544.637	16.429
-38.6787	547.408	16.4973
-38.6732	547.179	16.5657
-38.6673	546.458	16.634
-38.6615	543.453	16.7024
-38.6563	544.085	16.7708
-38.6495	541.6463	16.8391
-38.6447	536.147	16.9075
-38.6379	538.268	16.97583
-38.6331	539.261	17.0442
-38.6277	542.0415	17.1125
-38.6215	544.174	17.1809
-38.6156	546.956	17.2493
-38.6105	544.833	17.3176
-38.6051	542.959	17.386
-38.599	545.669	17.4543
-38.5943	539.6	17.5227
-38.5876	535.93	17.5911
-38.5818	537.626	17.6594
-38.5761	537.283	17.7278
-38.5699	538.479	17.7961
-38.565	542.3222	17.8645
-38.5584	544.045	17.9329
-38.554	541.885	18.0012
-38.5485	543.043	18.06958
-38.5417	543.889	18.1379
-38.5356	542.406	18.2063
-38.5314	538.453	18.2747
-38.5265	536.094	18.343
-38.5194	536.206	18.4114
-38.513	536.017	18.4797
-38.5077	537.9502	18.5481
-38.5022	542.357	18.6165
-38.4969	539.836	18.6848
-38.49086	540.417	18.7532
-38.4852	545.659	18.8215
-38.479	543.016	18.8899
-38.47345	537.451	18.9583
-38.46843	536.276	19.0266
-38.4617	535.323	19.095
-38.4557	536.205	19.16333
-38.4511	536.841	19.2317
[...]
-37.58733	520.679	29.593
-37.5812	518.5224	29.6614
-37.5771	521.268	29.7297
-37.5704	522.074	29.7981
-37.5648	524.966	29.8665
-37.5587	528.526	29.9348
-37.5534	529.831	30.0032
-37.5471	525.66	30.0715
-37.5411	526.025	30.1399
-37.5364	525.96	30.2083
-37.5303	521.506	30.2766
-37.5255	519.274	30.345
-37.5198	520.4325	30.41333
-37.5132	520.898	30.4817
-37.5076	522.024	30.55
-37.5019	526.198	30.6184
-37.4974	528.1377	30.6868
-37.492	525.182	30.7551
-37.4855	527.7157	30.8235
-37.4779	526.3103	30.8918
-37.4734	521.8	30.9602
-37.4676	520.58	31.0286
-37.4607	519.482	31.0969
-37.4569	519.399	31.1653
-37.4509	521.901	31.2336
-37.44487	522.895	31.302
-37.4392	523.344	31.3704
-37.4337	524.8197	31.4387
-37.4287	527.907	31.50708
-37.4217	525.682	31.5754
-37.416	520.5	31.6438
-37.4111	520.848	31.7122
-37.4053	518.961	31.7805
-37.40023	516.845	31.8489
-37.39436	520.031	31.9172
-37.3881	523.54	31.9856
-37.3829	520.595	32.054
-37.3786	521.508	32.1223
-37.3713	526.173	32.1907
-37.3659	525.889	32.259
-37.35915	521.762	32.3274
-37.3546	520.241	32.3958
-37.3488	519.8728	32.4641
-37.34267	517.443	32.5325
-37.3362	517.995	32.60083
-37.3324	521.126	32.6692
-37.3249	518.424	32.7375
-37.321	519.738	32.8059
-37.3142	526.5899	32.8743
-37.3084	525.394	32.9426
-37.30312	522.082	33.011
-37.2969	521.144	33.0793
-37.2902	519.3476	33.1477
-37.2858	518.49	33.2161
-37.2793	516.409	33.2844
-37.2742	516.888	33.3528
-37.2687	516.442	33.4211
-37.2624	518.944	33.4895
-37.2573	523.075	33.5579
-37.2516	523.069	33.6262
-37.2461	521.298	33.69458
-37.2398	520.814	33.7629
-37.2337	519.27	33.8313
-37.2287	517.3421	33.8997
-37.223	515.862	33.968
-37.2171	514.074	34.0364
-37.2116	514.172	34.1047
-37.2062	514.788	34.1731
-37.2009	519.166	34.2415
-37.1944	519.949	34.3098
-37.1875	521.233	34.3782
-37.1832	519.209	34.4465
-37.1776	520.86	34.5149
-37.172	516.435	34.5833
-37.16544	516.02	34.6516
-37.1599	515.26	34.72
-37.1548	510.815	34.78833
-37.149	511.946	34.8567
-37.1425	517.978	34.925
-37.1368	517.018	34.9934
-37.1319	518.6532	35.0618
-37.1263	519.677	35.1301
-37.1191	517.3551	35.1985
-37.115	516.291	35.2668
-37.1097	516.687	35.3352
-37.1031	512.6	35.4036
-37.0962	506.661	35.4719
-37.0926	508.364	35.5403
-37.0858	512.624	35.6086
-37.08004	512.509	35.677
-37.075	513.401	35.7454
-37.06839	517.652	35.8137
-37.0626	515.662	35.88208
-37.0576	513.274	35.9504
-37.0523	513.711	36.0188
-37.046	509.56	36.0872
-37.0401	503.3905	36.1555
-37.0342	502.5596	36.2239
-37.0283	506.653	36.2922
-37.0233	505.272	36.3606
-37.0174	505.745	36.429
-37.0132	507.7229	36.4973
-37.0059	506.757	36.5657
-37.0004	505.505	36.634
-36.9958	500.9296	36.7024
-36.9859	-39.9266	36.7708
-36.98122	-43.8699	36.8391
-36.9775	-45.2786	36.9075
-36.9715	-41.6194	36.97583
-36.9657	-43.957	37.0442
-36.9613	-42.395	37.1125
-36.95472	-40.0455	37.1809
-36.9489	-37.4923	37.2493
-36.9429	-35.0348	37.3176
-36.9378	-37.2412	37.386
-36.9324	-39.1144	37.4543
-36.9257	-43.308	37.5227
-36.9215	-45.5605	37.5911
-36.9153	-43.1348	37.6594
-36.9098	-46.541	37.7278
-36.9029	-43.6244	37.7961
-36.8988	-40.3354	37.8645
-36.8915	-39.9888	37.9329
-36.8878	-36.7792	38.0012
-36.8807	-36.1119	38.06958
-36.8762	-38.6176	38.1379
-36.8703	-44.2496	38.2063
-36.8637	-42.3814	38.2747
-36.8585	-41.4513	38.343
-36.8524	-45.5744	38.4114
-36.8465	-44.68174	38.4797
-36.8403	-41.7808	38.5481
-36.8352	-42.0467	38.6165
-36.8294	-38.4452	38.6848
-36.8241	-35.338	38.7532
-36.81863	-38.7161	38.8215
-36.8141	-42.0813	38.8899
-36.8072	-41.1672	38.9583
-36.8009	-40.7278	39.0266
-36.7953	-45.0187	39.095
-36.7892	-45.1857	39.16333
-36.7847	-43.3834	39.2317
-36.77869	-43.1129	39.3
-36.7748	-40.1645	39.3684
-36.7681	-38.8777	39.427