Folder: Stress_Strain_Analysis_Tools/data/processed_data_files/tensile (part 7)

File: 0.254_hd_dimension_typeiv_090_r(1).dat
MTS793|BTW|ENU|1|2|.|/|:|1|0|0|A

Data Header:			0.254_hd_dimension_typeiv_090_r0			Time:	20.0181	s	4/14/2019 12:26:09 AM
Data Acquisition:	Timed
Station Name:	ft40.cfg
Test File Name:	monotonic_0.2540_typeiv_hd_090_dimension.tst
Displacement	Force	Running Time
mm	N	s
-40.0413	-194.4019	0.0224609
-40.0402	-197.269	0.0908203
-40.0353	-194.453	0.15918
-40.02972	-188.479	0.227539
-40.0243	-187.476	0.295898
-40.0176	-185.554	0.364258
-40.0129	-181.858	0.432617
-40.00597	-177.536	0.500977
-40.0023	-170.416	0.569336
-39.9955	-165.949	0.637695
-39.9898	-163.3654	0.706055
-39.9842	-159.6902	0.774414
-39.9777	-156.845	0.842773
-39.9737	-153.0065	0.911133
-39.96674	-151.85	0.979492
-39.9609	-150.015	1.04785
-39.956	-147.71	1.11621
-39.95023	-143.423	1.18457
-39.9436	-136.885	1.25293
-39.9385	-132.921	1.32129
-39.9319	-130.053	1.38965
-39.926	-126.967	1.45801
-39.9224	-120.611	1.52637
-39.9154	-118.227	1.59473
-39.9101	-116.3694	1.66309
-39.9039	-113.194	1.73145
-39.9	-114.537	1.7998
-39.8934	-108.626	1.86816
-39.8861	-103.114	1.93652
-39.88113	-101.413	2.00488
-39.8765	-99.56015	2.07324
-39.8699	-92.0746	2.1416
-39.8648	-84.3506	2.20996
-39.8592	-84.0876	2.27832
-39.8533	-80.8647	2.34668
-39.8478	-79.045	2.41504
-39.8415	-78.1729	2.4834
-39.8361	-75.7125	2.55176
-39.8299	-71.0799	2.62012
-39.8255	-70.3313	2.68848
-39.8181	-64.8662	2.75684
-39.8128	-58.0481	2.8252
-39.8074	-52.9198	2.89355
-39.8016	-51.7928	2.96191
-39.7963	-44.9554	3.03027
-39.7894	-45.4453	3.09863
-39.7858	-44.3589	3.16699
-39.7793	-39.9128	3.23535
-39.7734	-37.30999	3.30371
-39.7662	-38.6505	3.37207
-39.761	-33.9662	3.44043
-39.7568	-23.937	3.50879
-39.7502	-20.8402	3.57715
-39.7452	-17.2267	3.64551
-39.7392	-11.9701	3.71387
-39.7335	-9.87178	3.78223
-39.7273	-9.32096	3.85059
-39.722	-5.08423	3.91895
-39.7161	-5.14662	3.9873
-39.71	-4.84505	4.05566
-39.7055	-0.546314	4.12402
-39.6985	8.984314	4.19238
-39.6929	10.639	4.26074
-39.688	15.0137	4.3291
-39.6817	22.7624	4.39746
-39.6774	23.459	4.46582
-39.6717	26.1337	4.53418
-39.66515	29.7619	4.60254
-39.6589	28.9917	4.6709
-39.6539	27.5633	4.73926
-39.6484	35.26572	4.80762
-39.6427	40.5606	4.87598
-39.6361	43.287	4.94434
-39.63028	49.9327	5.0127
-39.6256	55.0418	5.08105
-39.6198	58.11702	5.14941
-39.6138	59.2692	5.21777
-39.6079	62.6429	5.28613
-39.6019	62.15765	5.35449
-39.5979	61.2345	5.42285
-39.591	68.41333	5.49121
-39.5857	70.6627	5.55957
-39.58	73.3778	5.62793
-39.5734	79.8154	5.69629
-39.5685	85.1504	5.76465
-39.5627	88.5063	5.83301
-39.5566	93.5814	5.90137
-39.5507	95.845	5.96973
-39.5459	95.5634	6.03809
-39.5396	96.4573	6.10645
-39.53434	102.342	6.1748
-39.52845	102.647	6.24316
-39.522	105.798	6.31152
-39.5173	112.293	6.37988
-39.5116	116.707	6.44824
-39.5061	121.241	6.5166
-39.4996	127.503	6.58496
-39.49411	129.029	6.65332
-39.4876	126.597	6.72168
-39.4826	130.259	6.79004
-39.478	133.0881	6.8584
-39.472	133.526	6.92676
-39.465	138.16	6.99512
-39.4617	141.8501	7.06348
-39.4544	147.693	7.13184
-39.4474	151.762	7.2002
-39.4427	156.31	7.26855
-39.437	157.908	7.33691
-39.4317	160.187	7.40527
-39.4264	163.337	7.47363
-39.4219	165.954	7.54199
-39.4151	168.221	7.61035
-39.4085	168.05	7.67871
-39.4033	170.94	7.74707
-39.3971	178.269	7.81543
-39.39246	184.427	7.88379
-39.3869	187.496	7.95215
-39.3805	188.463	8.02051
-39.3749	193.558	8.08887
-39.3691	197.837	8.15723
-39.3635	198.218	8.22559
-39.3584	198.548	8.29395
-39.3519	199.793	8.3623
-39.3461	201.228	8.43066
-39.3404	209.151	8.49902
-39.3358	212.398	8.56738
-39.3294	215.323	8.63574
-39.32457	218.161	8.7041
-39.3181	225.465	8.77246
-39.3123	226.771	8.84082
-39.306	227.515	8.90918
-39.2999	232.9	8.97754
-39.29562	230.3763	9.0459
-39.29	232.155	9.11426
-39.283	239.281	9.18262
-39.2773	242.429	9.25098
-39.2731	241.896	9.31934
-39.2667	247.298	9.3877
-39.2612	256.163	9.45605
-39.2558	257.125	9.52441
-39.2508	260.023	9.59277
-39.2441	261.9754	9.66113
-39.2391	262.641	9.72949
-39.2329	264.464	9.79785
-39.2269	267.946	9.86621
-39.2197	268.171	9.93457
-39.216	271.006	10.00293
-39.21014	277.022	10.0713
-39.2037	285.343	10.1396
-39.1979	286.601	10.208
-39.1931	290.39	10.2764
-39.1888	294.69	10.3447
-39.1815	291.409	10.4131
-39.1744	295.009	10.4814
-39.1703	298.422	10.5498
-39.164	298.244	10.6182
-39.15786	298.98	10.6865
-39.1525	307.531	10.7549
-39.148	312.488	10.8232
-39.1415	314.334	10.8916
-39.1351	319.898	10.96
-39.1297	322.3111	11.02832
-39.12471	322.944	11.09668
-39.1176	324.528	11.165
-39.1131	328.382	11.2334
-39.1066	324.95	11.3018
-39.1014	325.491	11.3701
-39.0954	334.482	11.4385
-39.09	337.654	11.5068
-39.0842	340.937	11.5752
-39.07888	346.376	11.6436
-39.0734	349.107	11.7119
-39.0683	351.221	11.7803
-39.0618	353.042	11.8486
-39.0561	353.141	11.917
-39.0498	351.185	11.9854
-39.0449	352.6	12.0537
-39.0383	358.975	12.12207
-39.0325	360.228	12.19043
-39.0267	365.887	12.2588
-39.0222	371.486	12.3271
-39.0146	373.255	12.3955
-39.0098	375.3	12.4639
-39.0047	379.639	12.5322
-38.9986	375.909	12.6006
-38.9922	373.981	12.6689
-38.9875	378.156	12.7373
-38.9815	381.388	12.8057
-38.9759	382.922	12.874
-38.9701	390.235	12.9424
-38.9651	391.884	13.0107
-38.95908	396.664	13.0791
-38.9525	398.598	13.1475
-38.9476	402.632	13.21582
-38.9417	400.504	13.28418
-38.937	398.931	13.3525
-38.931	404.064	13.4209
-38.9251	403.221	13.4893
-38.9183	403.396	13.5576
-38.9137	407.981	13.626
-38.9081	410.421	13.6943
-38.9024	416.067	13.7627
-38.8963	420.595	13.8311
-38.891	420.5679	13.8994
-38.8849	419.142	13.9678
-38.8794	418.999	14.0361
-38.875	421.982	14.1045
-38.8686	420.528	14.1729
-38.8619	422.195	14.2412
-38.857	422.234	14.30957
-38.85017	425.889	14.37793
-38.8442	430.8118	14.4463
-38.839	434.105	14.5146
-38.8341	433.377	14.583
-38.8278	434.04	14.6514
-38.82291	435.912	14.7197
-38.8172	435.821	14.7881
-38.8109	434.497	14.8564
-38.8055	433.84	14.9248
-38.7996	433.932	14.9932
-38.7928	434.919	15.0615
-38.7878	438.949	15.1299
-38.7822	441.033	15.1982
-38.7767	439.884	15.2666
-38.7699	442.211	15.335
-38.7659	446.046	15.40332
-38.7598	443.148	15.47168
-38.7535	442.124	15.54
-38.7471	439.19	15.6084
-38.7427	438.706	15.6768
-38.7362	440.55	15.7451
-38.7311	442.789	15.8135
-38.7248	442.957	15.8818
-38.7194	441.378	15.9502
-38.7147	446.233	16.0186
-38.709	448.879	16.0869
-38.7025	445.89	16.1553
-38.697	445.918	16.2236
-38.6922	444.179	16.292
-38.6856	439.215	16.3604
-38.6788	440.505	16.4287
-38.6749	441.944	16.49707
-38.669	437.24	16.56543
-38.6626	439.797	16.6338
-38.656	446.578	16.7021
-38.6513	445.24	16.7705
-38.6457	442.606	16.8389
-38.6395	445.338	16.9072
-38.6343	441.685	16.9756
-38.6279	438.097	17.0439
-38.6227	437.714	17.1123
-38.6178	434.7688	17.1807
-38.6123	432.354	17.249
-38.6061	433.651	17.3174
-38.6005	441.091	17.3857
-38.595	438.708	17.4541
-38.5882	439.876	17.5225
-38.5819	439.789	17.59082
-38.5771	437.19	17.65918
-38.5722	435.2092	17.7275
-38.5654	433.89	17.7959
-38.5603	431.673	17.8643
-38.5547	427.712	17.9326
-38.5486	429.069	18.001
-38.543	433.544	18.0693
-38.5373	433.412	18.1377
-38.53191	435.076	18.2061
-38.5266	436.094	18.2744
-38.5202	434.65	18.3428
-38.5144	432.284	18.4111
-38.5087	430.958	18.4795
-38.5034	427.706	18.5479
-38.4972	423.67	18.6162
-38.492	426.828	18.68457
-38.48637	428.966	18.75293
-38.4801	428.285	18.8213
-38.4743	430.9729	18.8896
-38.4696	433.934	18.958
-38.4635	432.951	19.0264
-38.4571	431.913	19.0947
-38.4518	429.2099	19.1631
[...]
-37.7404	423.276	27.6982
-37.736	419.074	27.7568
-37.7312	420.207	27.81543
-37.7257	419.118	27.874
-37.7204	414.934	27.9326
-37.716	416.595	27.9912
-37.7119	416.737	28.0498
-37.7061	417.871	28.1084
-37.702	418.2038	28.167
-37.69688	420.97	28.2256
-37.6908	422.45	28.28418
-37.6876	420.429	28.3428
-37.6819	425.625	28.4014
-37.6773	421.571	28.46
-37.6725	424.056	28.5186
-37.6671	421.281	28.5771
-37.6618	422.57	28.6357
-37.6565	415.263	28.6943
-37.6539	418.597	28.75293
-37.6474	414.626	28.8115
-37.6426	414.7269	28.8701
-37.6383	414.514	28.9287
-37.6326	416.379	28.9873
-37.6294	415.93	29.0459
-37.6245	418.5741	29.1045
-37.6178	420.755	29.1631
-37.6131	419.882	29.22168
-37.6088	424.545	29.2803
-37.6034	423.745	29.3389
-37.59985	423.031	29.3975
-37.5942	423.46	29.4561
-37.5894	422.5112	29.5146
-37.5834	420.628	29.5732
-37.5801	418.084	29.6318
-37.5756	418.487	29.69043
-37.5704	414.413	29.749
-37.5648	415.102	29.8076
-37.5609	415.437	29.8662
-37.556	416.72	29.9248
-37.5503	415.051	29.9834
-37.5452	415.786	30.042
-37.5407	420.485	30.1006
-37.5354	417.369	30.15918
-37.53	420.272	30.2178
-37.5267	419.577	30.2764
-37.5211	422.901	30.335
-37.5158	417.006	30.3936
-37.5116	421.474	30.4521
-37.5064	417.1662	30.5107
-37.502	416.383	30.5693
-37.4964	413.848	30.62793
-37.4908	414.224	30.6865
-37.4872	413.536	30.7451
-37.4829	414.957	30.8037
-37.4775	415.661	30.8623
-37.4722	414.104	30.9209
-37.4668	417.681	30.9795
-37.4629	418.9	31.0381
-37.4572	418.943	31.09668
-37.4527	421.345	31.1553
-37.448	419.9852	31.2139
-37.4439	423.211	31.2725
-37.4389	419.163	31.3311
-37.4347	422.004	31.3896
-37.4293	417.877	31.4482
-37.4243	416.452	31.5068
-37.4182	414.033	31.56543
-37.4139	412.854	31.624
-37.40897	411.87	31.6826
-37.4039	412.415	31.7412
-37.4002	415.247	31.7998
-37.39373	410.444	31.8584
-37.3892	415.278	31.917
-37.3846	414.1384	31.9756
-37.3802	417.744	32.03418
-37.3739	414.8728	32.0928
-37.36932	419.529	32.1514
-37.3651	415.243	32.21
-37.3592	417.606	32.2686
-37.3547	416.787	32.3271
-37.3496	415.0672	32.3857
-37.3446	412.864	32.4443
-37.3405	411.762	32.50293
-37.335	410.676	32.5615
-37.3307	407.551	32.6201
-37.32655	407.995	32.6787
-37.3212	405.868	32.7373
-37.3129	30.3653	32.7959
-37.31	-39.97332	32.8545
-37.3057	-37.0052	32.9131
-37.3009	-36.7252	32.97168
-37.2965	-37.95166	33.0303
-37.2913	-33.8485	33.0889
-37.2867	-35.783	33.1475
-37.28083	-38.9077	33.2061
-37.2772	-37.0636	33.2646
-37.2717	-38.6054	33.3232
-37.2668	-38.9912	33.3818
-37.2622	-42.3255	33.44043
-37.2574	-40.0717	33.499
-37.2516	-45.5573	33.5576
-37.24646	-40.93523	33.6162
-37.2427	-44.4097	33.6748
-37.2375	-37.8828	33.7334
-37.2329	-41.9411	33.792
-37.2285	-37.0861	33.8506
-37.2222	-38.2273	33.90918
-37.2176	-37.0959	33.9678
-37.2129	-35.6108	34.0264
-37.2083	-34.702	34.085
-37.2029	-36.2833	34.1436
-37.1982	-34.554	34.2021
-37.1931	-35.939	34.2607
-37.1896	-40.29	34.3193
-37.1837	-38.1663	34.37793
-37.1789	-39.23381	34.4365
-37.1748	-41.3402	34.4951
-37.1696	-41.3074	34.5537
-37.1647	-42.455	34.6123
-37.1603	-40.4167	34.6709
-37.1545	-39.5553	34.7295
-37.1491	-34.5265	34.7881
-37.1443	-38.0868	34.84668
-37.14	-37.915	34.9053
-37.1359	-34.74091	34.9639
-37.1308	-37.3657	35.0225
-37.1254	-35.784	35.0811
-37.1198	-38.4334	35.1396
-37.1149	-35.9586	35.1982
-37.1115	-43.076	35.2568
-37.1059	-38.2318	35.31543
-37.1006	-44.0344	35.374
-37.0966	-40.823	35.4326
-37.0908	-42.6897	35.4912
-37.086	-40.0314	35.5498
-37.0815	-42.2053	35.6084
-37.0762	-40.0857	35.667
-37.0728	-36.1507	35.7256
-37.0663	-35.66272	35.78418
-37.0617	-35.1208	35.8428
-37.0571	-34.4253	35.9014
-37.0531	-33.1663	35.96
-37.048	-36.0446	36.0186
-37.0465	-35.5074	36.02832

File: 0.254_hd_dimension_typeiv_090_r(2).dat
MTS793|BTW|ENU|1|2|.|/|:|1|0|0|A

Data Header:			0.254_hd_dimension_typeiv_090_r0			Time:	20.0215	s	4/14/2019 12:28:08 AM
Data Acquisition:	Timed
Station Name:	ft40.cfg
Test File Name:	monotonic_0.2540_typeiv_hd_090_dimension.tst
Displacement	Force	Running Time
mm	N	s
-40.04105	-145.1647	0.0231934
-40.0405	-143.585	0.0915527
-40.0346	-140.456	0.159912
-40.0287	-135.544	0.228271
-40.0235	-127.983	0.296631
-40.0177	-125.393	0.36499
-40.0124	-124.011	0.43335
-40.0062	-120.43	0.501709
-40.0007	-115.154	0.570068
-39.9942	-113.445	0.638428
-39.989	-112.099	0.706787
-39.9841	-109.922	0.775146
-39.9773	-107.558	0.843506
-39.9724	-101.8127	0.911865
-39.9666	-95.3676	0.980225
-39.9608	-93.0929	1.048584
-39.9558	-89.1072	1.11694
-39.9496	-84.6418	1.1853
-39.9438	-80.4091	1.25366
-39.9381	-78.5311	1.32202
-39.93108	-76.2359	1.39038
-39.9258	-74.41291	1.45874
-39.9212	-71.976	1.5271
-39.9151	-67.1697	1.595459
-39.9089	-62.2528	1.66382
-39.9044	-61.2681	1.73218
-39.8982	-55.14621	1.80054
-39.8925	-49.0481	1.8689
-39.8868	-45.741	1.93726
-39.8812	-44.1163	2.00562
-39.8758	-40.34866	2.07397
-39.8715	-40.8469	2.142334
-39.86372	-37.88007	2.21069
-39.8578	-33.119	2.27905
-39.8533	-30.388	2.34741
-39.8471	-29.6425	2.41577
-39.841	-23.7725	2.48413
-39.8361	-15.3572	2.55249
-39.8291	-12.5543	2.62085
-39.8244	-9.6268	2.689209
-39.8186	-6.61344	2.75757
-39.81216	-5.67049	2.82593
-39.8068	-4.04659	2.89429
-39.8007	0.486033	2.96265
-39.7966	1.86402	3.03101
-39.7902	3.46205	3.09937
-39.7841	9.43888	3.16772
-39.7789	17.8384	3.236084
-39.7732	20.3351	3.30444
-39.7678	25.0361	3.3728
-39.7609	29.0871	3.44116
-39.7566	28.0513	3.50952
-39.75	28.7877	3.57788
-39.7449	33.7739	3.64624
-39.7387	35.9707	3.7146
-39.7323	34.463	3.782959
-39.7277	42.1379	3.85132
-39.7229	52.5884	3.91968
-39.7165	54.2201	3.98804
-39.7099	56.836	4.0564
-39.7062	63.0985	4.12476
-39.6992	62.73214	4.19312
-39.6934	66.5378	4.26147
-39.6876	68.1968	4.329834
-39.6819	67.5816	4.39819
-39.6764	69.1902	4.46655
-39.67141	77.0941	4.53491
-39.6656	82.9249	4.60327
-39.6578	85.5303	4.67163
-39.6534	89.6462	4.73999
-39.6481	97.1144	4.80835
-39.6408	98.95694	4.876709
-39.6373	100.831	4.94507
-39.6309	103.1041	5.01343
-39.6245	101.625	5.08179
-39.6206	101.907	5.15015
-39.6139	110.409	5.21851
-39.60807	114.4892	5.28687
-39.60247	118.232	5.35522
-39.5973	124.623	5.423584
-39.5918	129.406	5.49194
-39.5858	130.605	5.5603
-39.5795	134.188	5.62866
-39.5739	137.193	5.69702
-39.5685	134.597	5.76538
-39.56242	136.145	5.83374
-39.5559	142.329	5.9021
-39.551	144.7765	5.970459
-39.5455	149.559	6.03882
-39.53994	154.8333	6.10718
-39.5345	158.617	6.17554
-39.528	164.699	6.2439
-39.5241	166.897	6.31226
-39.5172	168.634	6.38062
-39.5117	167.3672	6.44897
-39.5052	170.193	6.517334
-39.5001	174.108	6.58569
-39.495	176.42	6.65405
-39.4891	179.45	6.72241
-39.4833	186.393	6.79077
-39.4772	191.0551	6.85913
-39.4715	195.617	6.92749
-39.4666	199.457	6.99585
-39.46027	200.8	7.064209
-39.455	201.782	7.13257
-39.4485	204.283	7.20093
-39.4433	207.53	7.26929
-39.43681	208.136	7.33765
-39.4324	211.488	7.40601
-39.426	216.3867	7.47437
-39.4197	221.562	7.54272
-39.4149	228.711	7.611084
-39.4083	231.124	7.67944
-39.404	231.4868	7.7478
-39.398	233.743	7.81616
-39.3906	238.764	7.88452
-39.3856	238.293	7.95288
-39.3802	240.549	8.02124
-39.3755	244.565	8.0896
-39.3687	245.424	8.157959
-39.3625	252.326	8.22632
-39.3574	256.762	8.29468
-39.3517	260.259	8.36304
-39.34631	260.726	8.4314
-39.3402	266.866	8.49976
-39.3342	270.706	8.56812
-39.3296	269.541	8.63647
-39.3232	271.3811	8.704834
-39.3174	274.66	8.77319
-39.31192	274.216	8.84155
-39.3048	280.709	8.90991
-39.301	284.782	8.97827
-39.2942	287.571	9.04663
-39.2886	289.208	9.11499
-39.2826	295.03	9.18335
-39.2767	299.977	9.251709
-39.2714	299.604	9.32007
-39.2663	302.3764	9.38843
-39.2612	304.428	9.45679
-39.2539	303.185	9.52515
-39.2486	307.901	9.59351
-39.2438	312.8421	9.66187
-39.2382	314.51	9.73022
-39.2318	316.736	9.798584
-39.226	326.789	9.86694
-39.2206	327.684	9.9353
-39.2143	328.7236	10.0037
-39.2093	330.958	10.072
-39.2037	332.109	10.1404
-39.1971	333.113	10.20874
-39.1921	336.954	10.2771
-39.1861	340.0513	10.3455
-39.1818	338.439	10.4138
-39.1748	343.151	10.4822
-39.1684	352.388	10.5505
-39.1638	356.22	10.6189
-39.1586	356.8913	10.6873
-39.1526	361.145	10.7556
-39.1465	360.992	10.824
-39.1408	360.91	10.8923
-39.1355	362.85	10.9607
-39.1305	364.325	11.0291
-39.1227	361.842	11.0974
-39.11858	369.351	11.1658
-39.1128	378.801	11.2341
-39.1065	379.485	11.30249
-39.1013	382.167	11.37085
-39.0957	385.8699	11.4392
-39.0909	387.197	11.5076
-39.0837	387.378	11.5759
-39.0786	388.9	11.6443
-39.0731	388.58	11.7126
-39.0672	387.572	11.781
-39.0627	392.236	11.8494
-39.0558	399.9017	11.9177
-39.0495	403.4881	11.9861
-39.0445	405.618	12.0544
-39.038	409.159	12.1228
-39.0326	410.771	12.1912
-39.0277	409.6	12.2595
-39.0214	410.425	12.3279
-39.0162	408.858	12.39624
-39.0111	409.018	12.4646
-39.00457	412.983	12.533
-38.99786	417.7941	12.6013
-38.9937	419.689	12.6697
-38.9883	423.292	12.738
-38.9827	426.736	12.8064
-38.975	428.66	12.8748
-38.97073	428.781	12.9431
-38.9646	427.55	13.0115
-38.9587	424.945	13.0798
-38.95335	425.006	13.1482
-38.9483	428.417	13.2166
-38.9425	432.657	13.2849
-38.93631	433.903	13.3533
-38.93008	435.995	13.4216
-38.9249	439.098	13.48999
-38.9176	442.918	13.55835
-38.9121	440.881	13.6267
-38.9081	439.606	13.6951
-38.9002	438.872	13.7634
-38.8953	437.902	13.8318
-38.8902	439.576	13.9001
-38.8834	439.384	13.9685
-38.87841	442.0065	14.0369
-38.8728	443.949	14.1052
-38.8676	445.1842	14.1736
-38.8615	450.38	14.2419
-38.8555	450.062	14.3103
-38.8498	447.186	14.3787
-38.8445	444.6	14.447
-38.8388	445.574	14.5154
-38.8332	444.112	14.58374
-38.828	443.038	14.6521
-38.8233	443.793	14.7205
-38.8169	445.469	14.7888
-38.811	446.8996	14.8572
-38.8051	450.902	14.9255
-38.79858	449.868	14.9939
-38.7937	446.05	15.0623
-38.7872	446.643	15.1306
-38.7814	449.668	15.199
-38.7771	443.469	15.2673
-38.7708	442.51	15.3357
-38.7652	443.456	15.4041
-38.759	442.789	15.4724
-38.753	444.467	15.5408
-38.7474	447.805	15.6091
-38.7422	446.294	15.67749
-38.737	442.9613	15.74585
-38.7309	443.304	15.8142
-38.7249	447.062	15.8826
-38.7198	439.513	15.9509
-38.7142	438.112	16.0193
-38.7076	438.6868	16.0876
-38.7025	437.392	16.156
-38.6973	438.3779	16.2244
-38.6908	441.601	16.2927
-38.68462	441.647	16.3611
-38.67942	438.8877	16.4294
-38.6732	441.176	16.4978
-38.668	443.531	16.5662
-38.6631	437.121	16.6345
-38.657	436.1	16.7029
-38.6514	434.852	16.77124
-38.6441	433.346	16.8396
-38.6396	431.174	16.908
-38.6344	437.421	16.9763
-38.628	434.886	17.0447
-38.6233	434.141	17.113
-38.6179	437.564	17.1814
-38.6113	438.697	17.2498
-38.6058	436.291	17.3181
-38.6009	433.5397	17.3865
-38.5948	432.605	17.4548
-38.5889	429.883	17.5232
-38.5831	429.585	17.5916
-38.5766	431.815	17.6599
-38.5721	427.3623	17.7283
-38.56451	428.952	17.7966
-38.5591	435.6713	17.86499
-38.5545	434.932	17.93335
-38.5491	432.995	18.0017
-38.5443	432.594	18.0701
-38.5383	431.421	18.1384
-38.5318	429.691	18.2068
-38.5254	426.9343	18.2751
-38.5196	428.464	18.3435
-38.5146	425.0513	18.4119
-38.5092	427.436	18.4802
-38.5037	431.693	18.5486
-38.4967	433.831	18.6169
-38.4918	432.3302	18.6853
-38.48637	432.249	18.7537
-38.4798	429.36	18.822
-38.4747	428.915	18.8904
-38.4687	427.43	18.95874
-38.4632	426.023	19.0271
[...]
-37.9524	418.046	25.1501
-37.9489	421.4838	25.199
-37.9443	426.8905	25.2478
-37.9414	424.361	25.2966
-37.9377	418.763	25.3455
-37.9321	417.731	25.3943
-37.9283	422.875	25.4431
-37.9242	426.689	25.4919
-37.9204	422.762	25.5408
-37.9161	422.111	25.5896
-37.9128	422.321	25.6384
-37.90765	425.223	25.6873
-37.90387	423.811	25.7361
-37.8988	419.77	25.7849
-37.8971	418.973	25.83374
-37.8915	421.807	25.8826
-37.8879	425.349	25.9314
-37.8842	423.196	25.9802
-37.88	418.979	26.0291
-37.8742	419.524	26.0779
-37.8724	421.384	26.1267
-37.8668	424.268	26.1755
-37.8633	422.166	26.2244
-37.859	420.594	26.2732
-37.856	422.391	26.322
-37.8495	425.694	26.37085
-37.8461	420.768	26.4197
-37.84362	420.029	26.4685
-37.838	419.609	26.5173
-37.8349	423.646	26.5662
-37.8304	423.299	26.61499
-37.8267	421.552	26.6638
-37.8227	421.271	26.7126
-37.8183	421.284	26.7615
-37.8147	423.589	26.8103
-37.8111	420.508	26.8591
-37.8058	420.139	26.908
-37.802	420.834	26.9568
-37.7977	424.591	27.0056
-37.79427	425.682	27.0544
-37.7897	419.596	27.1033
-37.7869	418.929	27.1521
-37.7805	421.509	27.2009
-37.7781	423.106	27.2498
-37.7726	421.109	27.2986
-37.7712	417.834	27.3474
-37.7659	419.171	27.39624
-37.7607	422.055	27.4451
-37.7569	421.792	27.4939
-37.7535	418.934	27.5427
-37.7497	417.591	27.5916
-37.7454	422.02	27.6404
-37.7414	428.164	27.6892
-37.7368	425.061	27.738
-37.7326	417.247	27.7869
-37.7292	417.303	27.8357
-37.7252	421.03	27.8845
-37.7207	423.815	27.93335
-37.7164	419.417	27.9822
-37.7117	417.005	28.031
-37.7083	420.704	28.0798
-37.7048	423.206	28.1287
-37.701	422.114	28.17749
-37.6956	418.144	28.2263
-37.6923	416.991	28.2751
-37.6885	422.763	28.324
-37.68428	426.62	28.3728
-37.6793	422.707	28.4216
-37.6772	416.73	28.4705
-37.6722	417.16	28.5193
-37.6687	422.099	28.5681
-37.6641	422.037	28.6169
-37.6604	417.831	28.6658
-37.656	415.74	28.7146
-37.6515	419.148	28.7634
-37.6471	424.346	28.8123
-37.64349	421.269	28.8611
-37.6393	415.3992	28.9099
-37.63599	415.294	28.95874
-37.6312	421.517	29.0076
-37.6278	425.294	29.0564
-37.6227	419.586	29.1052
-37.6183	416.187	29.1541
-37.6147	416.863	29.2029
-37.6115	423.106	29.2517
-37.6067	422.763	29.3005
-37.6028	415.731	29.3494
-37.5985	414.726	29.3982
-37.5938	418.821	29.447
-37.5912	423.252	29.49585
-37.5871	419.391	29.5447
-37.581	414.064	29.5935
-37.57766	414.75	29.6423
-37.5737	422.32	29.6912
-37.5707	424.586	29.73999
-37.5668	419.201	29.7888
-37.5621	417.911	29.8376
-37.5586	418.551	29.8865
-37.5536	422.665	29.9353
-37.55043	419.647	29.9841
-37.5458	415.053	30.033
-37.542	414.693	30.0818
-37.5364	420.127	30.1306
-37.53397	422.133	30.1794
-37.52832	417.625	30.2283
-37.5249	413.157	30.2771
-37.5215	415.395	30.3259
-37.5165	420.292	30.3748
-37.5132	420.974	30.4236
-37.5097	417.244	30.4724
-37.5055	415.478	30.52124
-37.5014	420.724	30.5701
-37.4959	420.527	30.6189
-37.4916	418.997	30.6677
-37.489	415.245	30.7166
-37.4841	414.845	30.7654
-37.4806	418.683	30.8142
-37.4759	419.124	30.863
-37.4731	414.245	30.9119
-37.4673	411.883	30.9607
-37.4645	413.503	31.0095
-37.4611	417.872	31.05835
-37.4563	417.699	31.1072
-37.4523	414.841	31.156
-37.4479	415.676	31.2048
-37.4447	418.93	31.2537
-37.44	417.955	31.30249
-37.43726	413.546	31.3513
-37.4323	411.669	31.4001
-37.42786	413.683	31.449
-37.4241	416.266	31.4978
-37.4202	411.753	31.5466
-37.4158	407.171	31.5955
-37.4076	-129.29	31.6443
-37.4046	-44.4658	31.6931
-37.4023	-37.64024	31.7419
-37.3983	-40.3039	31.7908
-37.3958	-39.9704	31.8396
-37.3912	-37.5028	31.8884
-37.3874	-33.4422	31.9373
-37.3828	-38.7556	31.9861
-37.3785	-42.0698	32.0349
-37.3758	-40.5309	32.08374
-37.37059	-38.3397	32.1326
-37.3663	-36.6045	32.1814
-37.3654	-41.8785	32.2107