Folder: Stress_Strain_Analysis_Tools/data/processed_data_files/tensile (part 35)

File: 0.254_solid_dimension_typei_4545_r(6).dat
MTS793|BTW|ENU|1|2|.|/|:|1|0|0|A

Data Header:			0.254_solid_dimension_typei_4545_r0			Time:	20.0178	s	4/14/2019 4:58:42 AM
Data Acquisition:	Timed
Station Name:	ft40.cfg
Test File Name:	monotonic_0.2540_typei_solid_4545_dimension.tst
Displacement	Force	Running Time
mm	N	s
9.95706	-121.866	0.0227051
9.95812	-121.792	0.0910645
9.96488	-113.053	0.159424
9.96894	-110.1367	0.2277832
9.97566	-109.931	0.296143
9.9815	-108.292	0.364502
9.98677	-111.135	0.432861
9.99363	-114.766	0.5012207
9.99843	-110.874	0.56958
10.00456	-103.296	0.637939
10.0098	-98.1616	0.706299
10.0156	-89.7003	0.7746582
10.021	-80.424	0.843018
10.0265	-76.1552	0.911377
10.033	-72.98587	0.979736
10.0381	-68.50602	1.0481
10.0442	-71.8401	1.11646
10.0493	-75.6459	1.18481
10.0559	-73.7798	1.25317
10.0609	-66.8751	1.32153
10.0662	-65.5693	1.38989
10.0725	-57.18924	1.458252
10.0786	-46.2758	1.52661
10.0838	-43.0207	1.59497
10.0899	-35.3267	1.66333
10.0952	-30.2104	1.73169
10.1008	-33.2392	1.80005
10.1065	-35.6133	1.86841
10.1115	-34.2926	1.93677
10.1178	-29.3934	2.005127
10.1237	-29.8176	2.07349
10.13	-22.7349	2.14185
10.13556	-11.2935	2.21021
10.1409	-6.23803	2.27856
10.1463	2.58587	2.34692
10.1521	9.79873	2.41528
10.1588	7.21507	2.48364
10.1642	6.15232	2.552002
10.169	8.711525	2.62036
10.1739	10.993	2.68872
10.1812	10.2267	2.75708
10.1861	16.0032	2.82544
10.19203	23.1057	2.8938
10.197	31.7351	2.96216
10.2032	40.6471	3.03052
10.2099	49.45039	3.098877
10.2149	49.959	3.16724
10.22157	50.6197	3.2356
10.2265	52.3024	3.30396
10.2321	53.0804	3.37231
10.2381	52.5959	3.44067
10.2426	56.2048	3.50903
10.2488	60.7537	3.57739
10.2543	69.6548	3.645752
10.2602	77.33197	3.71411
10.2659	86.6895	3.78247
10.2707	89.8519	3.85083
10.2767	91.2626	3.91919
10.2835	96.5888	3.98755
10.289	95.2998	4.05591
10.2939	94.8817	4.12427
10.3003	95.509	4.192627
10.3056	99.5989	4.26099
10.3121	107.105	4.32935
10.3164	115.139	4.39771
10.32285	123.188	4.46606
10.3287	128.354	4.53442
10.3346	133.591	4.60278
10.3401	138.18	4.67114
10.3461	137.404	4.739502
10.3515	136.145	4.80786
10.3574	136.75	4.87622
10.3632	139.696	4.94458
10.3674	146.467	5.01294
10.3737	152.266	5.0813
10.3798	157.254	5.14966
10.386	165.374	5.21802
10.3905	174.433	5.286377
10.3966	180.15	5.35474
10.4032	181.175	5.4231
10.40886	182.147	5.49146
10.4144	179.235	5.55981
10.4198	180.94	5.62817
10.4249	183.74	5.69653
10.4314	187.762	5.76489
10.437	193.302	5.833252
10.4427	201.436	5.90161
10.447	213.837	5.96997
10.4549	217.274	6.03833
10.46055	221.559	6.10669
10.4647	224.387	6.17505
10.4705	221.742	6.24341
10.47572	224.158	6.31177
10.4832	224.04	6.380127
10.4886	226.3026	6.44849
10.4928	230.208	6.51685
10.4994	241.013	6.58521
10.5054	253.281	6.65356
10.5104	256.6	6.72192
10.51589	262.358	6.79028
10.5231	267.371	6.85864
10.52769	264.201	6.927002
10.533	264.859	6.99536
10.5395	266.7449	7.06372
10.5443	265.092	7.13208
10.5506	269.505	7.20044
10.55626	278.417	7.2688
10.5618	288.619	7.33716
10.5678	294.371	7.40552
10.5734	302.876	7.473877
10.5788	309.089	7.54224
10.5844	307.143	7.6106
10.5909	308.863	7.67896
10.5964	310.413	7.74731
10.6026	305.272	7.81567
10.6087	307.009	7.88403
10.61356	315.35	7.95239
10.6193	323.505	8.020752
10.625	329.686	8.08911
10.6293	340.896	8.15747
10.6369	345.754	8.22583
10.6419	349.95	8.29419
10.6477	350.433	8.36255
10.654	350.46	8.43091
10.6587	347.964	8.49927
10.6644	345.849	8.567627
10.6705	352.606	8.63599
10.6757	358.913	8.70435
10.6811	363.8465	8.77271
10.6862	376.618	8.84106
10.6934	384.386	8.90942
10.6987	390.606	8.97778
10.70519	395.497	9.04614
10.71	395.518	9.114502
10.7158	389.768	9.18286
10.722	386.9	9.25122
10.7273	392.3136	9.31958
10.7333	393.573	9.38794
10.7393	399.042	9.4563
10.7439	410.811	9.52466
10.75007	419.887	9.59302
10.756	427.707	9.661377
10.7614	435.223	9.72974
10.7672	435.228	9.7981
10.77349	433.8902	9.86646
10.7789	432.78	9.93481
10.784	434.841	10.0032
10.7902	430.82	10.0715
10.7956	434.058	10.1399
10.8013	444.208	10.2083
10.8067	453.8063	10.2766
10.81298	463.807	10.345
10.8179	472.75	10.41333
10.8237	474.997	10.4817
10.8298	475.058	10.55
10.8358	475.751	10.6184
10.8413	473.952	10.6868
10.8472	470.883	10.7551
10.8527	472.541	10.8235
10.8585	478.7373	10.8918
10.8642	487.27	10.9602
10.8695	497.99	11.0286
10.875	506.314	11.0969
10.88035	510.909	11.1653
10.8874	515.771	11.2336
10.8928	518.304	11.302
10.898	516.528	11.3704
10.90404	512.745	11.4387
10.9085	511.254	11.50708
10.9169	513.018	11.5754
10.9215	520.8335	11.6438
10.9269	532.032	11.7122
10.9318	539.418	11.7805
10.9387	546.628	11.8489
10.9429	553.3288	11.9172
10.9488	558.139	11.9856
10.9551	556.613	12.054
10.9608	552.895	12.1223
10.9655	550.695	12.1907
10.9715	549.269	12.259
10.9779	554.651	12.3274
10.9841	563.915	12.3958
10.9901	571.6817	12.4641
10.9962	579.806	12.5325
11.0006	590.067	12.60083
11.0062	594.4707	12.6692
11.0118	594.718	12.7375
11.01825	593.687	12.8059
11.0238	593.186	12.8743
11.02923	587.165	12.9426
11.0353	592.599	13.011
11.0407	596.369	13.0793
11.0475	600.6311	13.1477
11.05182	610.915	13.2161
11.05789	623.814	13.2844
11.0636	629.247	13.3528
11.0688	632.027	13.4211
11.0743	634.767	13.4895
11.0809	630.7793	13.5579
11.0859	626.2182	13.6262
11.0922	628.021	13.69458
11.0972	630.628	13.7629
11.1027	632.0144	13.8313
11.109	641.908	13.8997
11.1147	656.409	13.968
11.1204	660.841	14.0364
11.1254	667.67	14.1047
11.1301	672.741	14.1731
11.13774	669.467	14.2415
11.14257	666.763	14.3098
11.1493	665.075	14.3782
11.1542	665.078	14.4465
11.1594	664.623	14.5149
11.1654	672.821	14.5833
11.1711	685.881	14.6516
11.1772	692.313	14.72
11.1827	701.942	14.78833
11.1883	709.5686	14.8567
11.1949	707.789	14.925
11.2002	706.512	14.9934
11.2049	704.201	15.0618
11.2113	700.3	15.1301
11.2175	696.593	15.1985
11.2225	705.7085	15.2668
11.2282	716.878	15.3352
11.234	722.199	15.4036
11.24	732.4173	15.4719
11.2454	741.938	15.5403
11.2508	743.679	15.6086
11.2566	744.292	15.677
11.2619	741.947	15.7454
11.2681	737.224	15.8137
11.275	733.4295	15.88208
11.2804	738.776	15.9504
11.2851	745.902	16.0188
11.2908	751.7536	16.0872
11.2965	762.926	16.1555
11.3024	770.8219	16.2239
11.3082	777.502	16.2922
11.3139	778.621	16.3606
11.3187	780.517	16.429
11.3251	775.41	16.4973
11.3311	768.982	16.5657
11.3366	772.623	16.634
11.342	774.154	16.7024
11.34714	780.3	16.7708
11.3517	790.282	16.8391
11.3599	799.75	16.9075
11.3643	807.554	16.97583
11.3706	811.55	17.0442
11.3763	812.828	17.1125
11.38193	809.208	17.1809
11.3881	804.25	17.2493
11.3941	806.19	17.3176
11.3992	806.319	17.386
11.4046	810.424	17.4543
11.4108	819.519	17.5227
11.4159	826.963	17.5911
11.4232	836.617	17.6594
11.42668	844.65	17.7278
11.4335	845.567	17.7961
11.4379	841.972	17.8645
11.4451	842.358	17.9329
11.4505	839.813	18.0012
11.4565	837.905	18.06958
11.46214	839.096	18.1379
11.46721	844.817	18.2063
11.4729	852.75	18.2747
11.4791	864.409	18.343
11.4846	871.518	18.4114
11.4901	874.403	18.4797
11.4955	874.624	18.5481
11.5025	876.632	18.6165
11.508	872.186	18.6848
11.513	869.937	18.7532
11.5185	869.9	18.8215
11.5249	871.549	18.8899
11.5305	878.674	18.9583
11.5365	888.606	19.0266
11.5414	894.1839	19.095
11.5468	900.932	19.16333
11.5527	903.821	19.2317
11.5585	907.421	19.3
11.5643	903.467	19.3684
11.5701	901.611	19.4368
11.5767	900.519	19.5051
11.5813	898.947	19.5735
11.5876	904.768	19.6418
11.5926	912.647	19.7102
11.5982	919.535	19.7786
11.6039	924.43	19.8469
11.6103	932.606	19.9153
[...]
15.6347	1091.48	68.22583
15.6399	1091.57	68.2844
15.6444	1085.62	68.343
15.6491	1084.87	68.4016
15.6543	1080.35	68.4602
15.66	1076.39	68.5188
15.6644	1071.97	68.5774
15.66994	1072.45	68.636
15.6745	1070.79	68.69458
15.679	1072.73	68.7532
15.6831	1076.45	68.8118
15.6887	1078.42	68.8704
15.69474	1084.09	68.929
15.6981	1083.36	68.9875
15.7033	1089.41	69.0461
15.7087	1086.85	69.1047
15.7129	1090.44	69.16333
15.7169	1087.19	69.2219
15.7229	1086.11	69.2805
15.7279	1083.92	69.3391
15.733	1079.67	69.3977
15.7372	1076.79	69.4563
15.7424	1074.97	69.5149
15.74755	1073.84	69.5735
15.7522	1071.108	69.63208
15.7569	1075.81	69.6907
15.76169	1079.04	69.7493
15.7668	1080.22	69.8079
15.77228	1083.64	69.8665
15.7774	1086.106	69.925
15.7813	1089.76	69.9836
15.7876	1088.11	70.0422
15.7922	1092.16	70.10083
15.7957	1086.214	70.1594
15.8	1087.33	70.218
15.8069	1082.2	70.2766
15.8119	1080.16	70.3352
15.8155	1073.84	70.3938
15.8212	1072.37	70.4524
15.82574	1071.4	70.511
15.8297	1068.82	70.56958
15.8356	1074.2	70.6282
15.84063	1075.11	70.6868
15.845	1078.33	70.7454
15.8506	1078.78	70.804
15.8546	1088.04	70.8625
15.8594	1084.68	70.9211
15.8644	1089.7	70.9797
15.8694	1089.95	71.03833
15.8746	1086.85	71.0969
15.8781	1085.55	71.1555
15.8838	1082.79	71.2141
15.88954	1079.85	71.2727
15.8939	1074.88	71.3313
15.8983	1073.98	71.3899
15.90315	1071.5	71.4485
15.9085	1071.51	71.50708
15.9137	1073.86	71.5657
15.9179	1073.9	71.6243
15.9231	1077.5	71.6829
15.9284	1080.07	71.7415
15.9332	1086.31	71.8
15.9386	1084.843	71.8586
15.9435	1090.72	71.9172
15.9476	1087.63	71.97583
15.9524	1087	72.0344
15.958	1083.129	72.093
15.963	1080.54	72.1516
15.9672	1077.15	72.2102
15.9718	1072.19	72.2688
15.9764	1071.36	72.3274
15.98173	1067.16	72.386
15.9874	1070.28	72.44458
15.9919	1068.82	72.5032
15.99631	1074.71	72.5618
16.0004	1073.493	72.6204
16.0065	1080.24	72.679
16.0113	1084.67	72.7375
16.0159	1084.61	72.7961
16.0199	1087.95	72.8547
16.0261	1087.483	72.91333
16.0306	1086.78	72.9719
16.0358	1084.03	73.0305
16.041	1083	73.0891
16.0456	1077.001	73.1477
16.0505	1074.06	73.2063
16.0558	1072.68	73.2649
16.05979	1070.47	73.3235
16.06522	1071.27	73.38208
16.0697	1069.8	73.4407
16.0753	1076.19	73.4993
16.08	1073.89	73.5579
16.0846	1082.11	73.6165
16.0883	1081.45	73.675
16.0947	1085.47	73.7336
16.0991	1086.12	73.7922
16.1041	1086.48	73.85083
16.1098	1084.45	73.9094
16.11375	1081.82	73.968
16.1186	1080.52	74.0266
16.1228	1072.01	74.0852
16.1283	1071.42	74.1438
16.1338	1068.22	74.2024
16.1375	1068.369	74.261
16.1427	1066.24	74.31958
16.1481	1070.04	74.3782
16.15156	1069.61	74.4368
16.158	1073.61	74.4954
16.1628	1077.881	74.554
16.167	1080.89	74.6125
16.1718	1083.29	74.6711
16.1776	1086.14	74.7297
16.1814	1086.33	74.78833
16.1863	1083.65	74.8469
16.1924	1081.42	74.9055
16.1973	1079.465	74.9641
16.2011	1072.12	75.0227
16.2068	1070.8	75.0813
16.2115	1064.89	75.1399
16.216	1061.82	75.1985
16.2208	1055.38	75.25708
16.2312	-46.4072	75.3157
16.2337	-47.5474	75.3743
16.2378	-39.49931	75.4329
16.2409	-36.8809	75.4915
16.2465	-32.0381	75.55
16.252	-31.411	75.6086
16.2564	-28.7456	75.6672
16.2609	-29.7168	75.72583
16.2655	-34.0768	75.7844
16.2708	-34.7056	75.843
16.2762	-42.8009	75.9016
16.2795	-43.5222	75.9602
16.2838	-48.6286	76.0188
16.2904	-47.2164	76.0774
16.2948	-52.384	76.136
16.3002	-49.7473	76.19458
16.3055	-48.2183	76.2532
16.3104	-47.21389	76.3118
16.3156	-41.8819	76.3704
16.319	-36.7966	76.429
16.324	-35.1893	76.4875
16.3279	-31.7038	76.5461
16.3335	-30.756	76.6047
16.3393	-31.5797	76.66333
16.3439	-32.9811	76.7219
16.3479	-34.1022	76.7805
16.3533	-40.065	76.8391
16.3578	-42.73851	76.8977
16.3643	-46.8758	76.9563
16.36867	-46.3603	77.0149

File: 0.254_solid_dimension_typeiv_090_r(1).dat
MTS793|BTW|ENU|1|2|.|/|:|1|0|0|A

Data Header:			0.254_solid_uprint_typeiv_090_r0			Time:	20.0173	s	4/14/2019 1:33:05 AM
Data Acquisition:	Timed
Station Name:	ft40.cfg
Test File Name:	monotonic_0.2540_typeiv_solid_090_uprint.tst
Displacement	Force	Running Time
mm	N	s
-40.042	-242.7818	0.0224609
-40.0392	-240.452	0.0908203
-40.03339	-235.618	0.15918
-40.0285	-233.208	0.227539
-40.0223	-227.186	0.295898
-40.0164	-220.492	0.364258
-40.01152	-220.205	0.432617
-40.00576	-213.284	0.500977
-39.9993	-210.479	0.569336
-39.9937	-211.687	0.637695
-39.988	-212.174	0.706055
-39.9837	-207.465	0.774414
-39.9767	-201.801	0.842773
-39.9712	-199.401	0.911133
-39.96608	-194.762	0.979492
-39.9594	-185.602	1.04785
-39.953	-185.441	1.11621
-39.9485	-180.085	1.18457
-39.9436	-177.558	1.25293
-39.9374	-175.211	1.32129
-39.9313	-178.0074	1.38965
-39.9253	-173.976	1.45801
-39.92	-167.93	1.52637
-39.9143	-166.922	1.59473
-39.9087	-162.49	1.66309
-39.9026	-156.556	1.73145
-39.8987	-150.678	1.7998
-39.8916	-146.9529	1.86816
-39.8864	-141.447	1.93652
-39.88028	-138.883	2.00488
-39.87553	-139.746	2.07324
-39.8686	-140.2773	2.1416
-39.8637	-132.239	2.20996
-39.8582	-132.612	2.27832
-39.8515	-126.945	2.34668
-39.8466	-120.624	2.41504
-39.8414	-117.7202	2.4834
-39.8341	-111.435	2.55176
-39.8286	-107.521	2.62012
-39.82312	-101.393	2.68848
-39.8179	-103.3259	2.75684
-39.8118	-103.604	2.8252
-39.8065	-97.4505	2.89355
-39.8001	-96.5689	2.96191
-39.7946	-93.7427	3.03027
-39.7899	-89.0498	3.09863
-39.784	-84.3322	3.16699
-39.779	-77.8272	3.23535
-39.772	-72.4131	3.30371
-39.7666	-68.1893	3.37207
-39.7598	-66.8079	3.44043
-39.7554	-64.3021	3.50879
-39.7501	-60.6657	3.57715
-39.7431	-60.5676	3.64551
-39.7387	-57.1857	3.71387
-39.7326	-53.5677	3.78223
-39.7276	-49.7176	3.85059
-39.7207	-41.8648	3.91895
-39.7156	-38.5697	3.9873
-39.7098	-35.84964	4.05566
-39.7044	-32.9541	4.12402
-39.6983	-29.3604	4.19238
-39.6925	-25.1486	4.26074
-39.6872	-25.659	4.3291
-39.6817	-23.9785	4.39746
-39.6755	-19.2219	4.46582
-39.6683	-16.7744	4.53418
-39.6638	-10.71572	4.60254
-39.6577	-3.3594	4.6709
-39.6523	1.51249	4.73926
-39.6469	0.3527202	4.80762
-39.6414	4.2208	4.87598
-39.6345	11.9771	4.94434
-39.6302	8.72774	5.0127
-39.62429	10.6988	5.08105
-39.6187	16.326	5.14941
-39.6125	17.8004	5.21777
-39.6062	23.0292	5.28613
-39.6017	29.3191	5.35449
-39.5953	35.4508	5.42285
-39.5911	36.7323	5.49121
-39.5842	39.9918	5.55957
-39.5784	46.4966	5.62793
-39.5728	48.0218	5.69629
-39.56728	47.85574	5.76465
-39.5619	51.8312	5.83301
-39.5555	56.6262	5.90137
-39.5504	56.4703	5.96973
-39.5447	63.1601	6.03809
-39.5386	69.8026	6.10645
-39.533	71.1908	6.1748
-39.5266	73.6173	6.24316
-39.522	80.8499	6.31152
-39.516	84.9665	6.37988
-39.5104	83.9691	6.44824
-39.5043	86.9773	6.5166
-39.4988	90.2419	6.58496
-39.4934	92.2546	6.65332
-39.4887	96.5846	6.72168
-39.4812	101.374	6.79004
-39.4763	106.184	6.8584
-39.4715	108.531	6.92676
-39.4656	115.4138	6.99512
-39.4584	120.562	7.06348
-39.4532	119.997	7.13184
-39.4471	121.822	7.2002
-39.4409	124.847	7.26855
-39.436	126.575	7.33691
-39.4313	130.153	7.40527
-39.4249	134.387	7.47363
-39.4196	139.8262	7.54199
-39.4132	143.828	7.61035
-39.4081	149.541	7.67871
-39.403	154.182	7.74707
-39.3969	156.73	7.81543
-39.3902	158.748	7.88379
-39.3849	157.679	7.95215
-39.3793	161.229	8.02051
-39.3734	164.284	8.08887
-39.3669	170.193	8.15723
-39.3611	169.477	8.22559
-39.3563	175.379	8.29395
-39.3505	182.225	8.3623
-39.3456	186.5417	8.43066
-39.3398	188.479	8.49902
-39.334	192.817	8.56738
-39.32798	192.823	8.63574
-39.3228	193.416	8.7041
-39.3164	198.057	8.77246
-39.3111	202.343	8.84082
-39.3053	202.142	8.90918
-39.2999	205.991	8.97754
-39.2934	214.21	9.0459
-39.2884	219.3273	9.11426
-39.2823	221.522	9.18262
-39.2777	225.084	9.25098
-39.2712	229.364	9.31934
-39.2655	228.009	9.3877
-39.2598	232.407	9.45605
-39.2542	234.92	9.52441
-39.2481	236.048	9.59277
-39.242	236.137	9.66113
-39.2366	244.709	9.72949
-39.2318	252.918	9.79785
-39.2242	253.393	9.86621
-39.22	257.374	9.93457
-39.2143	262.899	10.00293
-39.208	262.255	10.0713
-39.2033	264.048	10.1396
-39.1975	267.915	10.208
-39.1914	268.433	10.2764
-39.1857	266.444	10.3447
-39.1794	273.657	10.4131
-39.1744	284.865	10.4814
-39.1691	285.492	10.5498
-39.1626	289.071	10.6182
-39.15847	294.206	10.6865
-39.1509	294.144	10.7549
-39.1454	296.09	10.8232
-39.1408	297.366	10.8916
-39.1339	300.703	10.96
-39.1288	300.3205	11.02832
-39.1227	303.873	11.09668
-39.1166	313.299	11.165
-39.1127	314.728	11.2334
-39.1056	318.028	11.3018
-39.1006	322.383	11.3701
-39.0941	325.079	11.4385
-39.0887	326.579	11.5068
-39.08326	330.752	11.5752
-39.07724	330.481	11.6436
-39.0714	330.551	11.7119
-39.0658	331.585	11.7803
-39.0612	340.058	11.8486
-39.0542	343.405	11.917
-39.0489	347.262	11.9854
-39.043	352.833	12.0537
-39.0384	354.797	12.12207
-39.0317	358.641	12.19043
-39.0264	360.625	12.2588
-39.0201	361.254	12.3271
-39.0147	359.459	12.3955
-39.0099	360.233	12.4639
-39.004	366.991	12.5322
-38.9979	368.165	12.6006
-38.9922	373.587	12.6689
-38.9861	379.0816	12.7373
-38.9806	381.472	12.8057
-38.9759	386.4136	12.874
-38.96891	389.543	12.9424
-38.9637	389.297	13.0107
-38.9574	385.486	13.0791
-38.9534	389.12	13.1475
-38.9469	393.069	13.21582
-38.9413	394.744	13.28418
-38.9352	398.4	13.3525
-38.9285	403.87	13.4209
-38.9246	406.509	13.4893
-38.9192	410.325	13.5576
-38.9119	414.725	13.626
-38.9067	414.782	13.6943
-38.9013	411.383	13.7627
-38.8952	412.595	13.8311
-38.8905	417.934	13.8994
-38.8841	416.858	13.9678
-38.8784	417.891	14.0361
-38.8726	424.408	14.1045
-38.8669	426.743	14.1729
-38.8612	430.829	14.2412
-38.8547	434.856	14.30957
-38.8495	435.777	14.37793
-38.84444	432.814	14.4463
-38.8381	432.958	14.5146
-38.8332	436.9874	14.583
-38.827	435.4183	14.6514
-38.8216	435.795	14.7197
-38.8158	440.292	14.7881
-38.8088	445.727	14.8564
-38.8047	447.11	14.9248
-38.799	451.883	14.9932
-38.7934	454.513	15.0615
-38.7877	449.6792	15.1299
-38.782	446.92	15.1982
-38.7755	451.254	15.2666
-38.7704	449.9617	15.335
-38.7642	448.547	15.40332
-38.75795	451.167	15.47168
-38.7524	454.279	15.54
-38.7468	456.191	15.6084
-38.7414	458.694	15.6768
-38.7371	461.821	15.7451
-38.7303	459.631	15.8135
-38.7253	455.983	15.8818
-38.7181	457.169	15.9502
-38.7128	456.7373	16.0186
-38.7074	453.565	16.0869
-38.7018	454.903	16.1553
-38.6952	457.422	16.2236
-38.6902	458.89	16.292
-38.6846	462.815	16.3604
-38.679	462.63	16.4287
-38.6735	462.328	16.49707
-38.6674	459.119	16.56543
-38.6628	459.434	16.6338
-38.656	458.98	16.7021
-38.65012	455.303	16.7705
-38.6447	454.632	16.8389
-38.6389	454.559	16.9072
-38.6331	455.682	16.9756
-38.6286	459.928	17.0439
-38.6212	459.686	17.1123
-38.6158	458.7027	17.1807
-38.6106	457.056	17.249
-38.6056	457.086	17.3174
-38.5997	456.469	17.3857
-38.5933	452.28	17.4541
-38.5877	451.389	17.5225
-38.5806	450.056	17.59082
-38.57526	449.308	17.65918
-38.5705	452.499	17.7275
-38.5659	455.6239	17.7959
-38.5585	454.373	17.8643
-38.554	452.75	17.9326
-38.54702	454.428	18.001
-38.5425	451.692	18.0693
-38.5365	446.308	18.1377
-38.5301	446.586	18.2061
-38.5256	444.864	18.2744
-38.5193	442.55	18.3428
-38.5134	445.508	18.4111
-38.5087	449.617	18.4795
-38.5022	448.851	18.5479
-38.4969	447.248	18.6162
-38.4901	448.85	18.68457
-38.4856	450.421	18.75293
-38.47892	444.739	18.8213
-38.4737	444.777	18.8896
-38.4691	444.215	18.958
-38.4621	440.008	19.0264
[...]
-37.949	437.525	25.1787
-37.9462	429.905	25.2178
-37.9435	437.236	25.2568
-37.9394	435.479	25.2959
-37.93578	428.591	25.335
-37.9336	439.304	25.374
-37.9301	430.5134	25.4131
-37.9267	431.646	25.4521
-37.9229	437.056	25.4912
-37.92083	431.293	25.5303
-37.9184	431.244	25.5693
-37.9139	434.263	25.6084
-37.91169	431.66	25.6475
-37.9069	435.155	25.6865
-37.90517	431.961	25.7256
-37.9018	434.728	25.7646
-37.8989	434.35	25.8037
-37.8944	429.521	25.8428
-37.8911	436.535	25.8818
-37.887	432.6665	25.9209
-37.88488	429.419	25.96
-37.8815	437.384	25.999
-37.8782	429.517	26.0381
-37.8745	434.466	26.0771
-37.8712	437.486	26.1162
-37.8692	429.855	26.1553
-37.8651	433.967	26.1943
-37.8621	435.832	26.2334
-37.85886	430.199	26.2725
-37.8554	438.383	26.3115
-37.85144	432.732	26.3506
-37.8482	433.981	26.3896
-37.8473	437.603	26.4287
-37.8435	429.122	26.4678
-37.8394	438.426	26.5068
-37.8362	433.009	26.5459
-37.8327	430.228	26.585
-37.82832	436.872	26.624
-37.8255	431.49	26.6631
-37.8226	430.139	26.7021
-37.8196	436.807	26.7412
-37.8153	429.101	26.7803
-37.8122	431.5173	26.8193
-37.8099	433.82	26.8584
-37.80595	428.429	26.8975
-37.8034	433.169	26.9365
-37.8003	428.32	26.9756
-37.797	432.451	27.0146
-37.7941	431.9007	27.0537
-37.7903	428.382	27.0928
-37.7864	434.935	27.1318
-37.783	430.808	27.1709
-37.7807	429.279	27.21
-37.776	436.837	27.249
-37.773	427.222	27.2881
-37.7701	429.433	27.3271
-37.7675	438.218	27.3662
-37.7641	425.383	27.4053
-37.7617	433.6261	27.4443
-37.7567	433.0842	27.4834
-37.75415	427.754	27.5225
-37.7505	435.025	27.5615
-37.7481	430.856	27.6006
-37.7439	433.381	27.6396
-37.7419	435.467	27.6787
-37.7375	430.132	27.7178
-37.7354	433.914	27.7568
-37.7316	433.411	27.7959
-37.7292	429.8038	27.835
-37.72514	436.773	27.874
-37.72311	429.343	27.9131
-37.7189	431.3215	27.9521
-37.71566	435.911	27.9912
-37.7113	427.805	28.0303
-37.709	434.2464	28.0693
-37.7058	433.076	28.1084
-37.7024	428.388	28.1475
-37.6987	432.119	28.1865
-37.6968	429.1488	28.2256
-37.692	429.864	28.2646
-37.6902	430.633	28.3037
-37.686	427.087	28.3428
-37.6826	432.307	28.3818
-37.681	428.477	28.4209
-37.6764	426.666	28.46
-37.6735	435.131	28.499
-37.6705	423.486	28.5381
-37.6659	429.607	28.5771
-37.663	433.345	28.6162
-37.66032	422.996	28.6553
-37.6567	432.075	28.6943
-37.6536	433.64	28.7334
-37.651	425.951	28.7725
-37.647	432.666	28.8115
-37.644	429.544	28.8506
-37.64	426.49	28.8896
-37.6377	434.974	28.9287
-37.6346	425.618	28.9678
-37.6311	433.112	29.0068
-37.6283	432.478	29.0459
-37.6234	427.634	29.085
-37.621	434.695	29.124
-37.6177	427.9996	29.1631
-37.6145	430.656	29.2021
-37.6115	432.982	29.2412
-37.607	426.458	29.2803
-37.6045	430.797	29.3193
-37.6014	431.496	29.3584
-37.5983	425.451	29.3975
-37.595	431.916	29.4365
-37.5918	428.496	29.4756
-37.58913	425.617	29.5146
-37.5849	430.906	29.5537
-37.5816	423.143	29.5928
-37.5783	430.576	29.6318
-37.5752	426.406	29.6709
-37.57267	423.892	29.71
-37.5692	429.702	29.749
-37.5655	422.438	29.7881
-37.5623	423.365	29.8271
-37.5588	428.558	29.8662
-37.555	417.5217	29.9053
-37.5529	425.1774	29.9443
-37.5487	425.197	29.9834
-37.547	413.817	30.0225
-37.5422	424.336	30.0615
-37.5407	415.563	30.1006
-37.53598	407.16	30.1396
-37.5297	-29.2197	30.1787
-37.52927	-48.24577	30.2178
-37.5265	-42.1315	30.2568
-37.5218	-41.3308	30.2959
-37.5196	-43.8691	30.335
-37.5165	-39.2319	30.374
-37.5129	-42.68021	30.4131
-37.5093	-42.698	30.4521
-37.5077	-37.88356	30.4912
-37.50272	-44.47686	30.5303
-37.5009	-38.2599	30.5693
-37.4974	-39.0071	30.6084
-37.4929	-43.7982	30.6475
-37.4909	-36.1223	30.6865
-37.4865	-43.176	30.7256
-37.48391	-40.097	30.7646
-37.4796	-38.8455	30.8037
-37.48037	-38.2567	30.8135