Folder: Stress_Strain_Analysis_Tools/data/processed_data_files/tensile (part 39)

File: 0.254_solid_dimension_typeiv_090_r(8).dat
MTS793|BTW|ENU|1|2|.|/|:|1|0|0|A

Data Header:			0.254_solid_dimension_typeiv_090_r0			Time:	20.0176	s	4/14/2019 2:01:57 AM
Data Acquisition:	Timed
Station Name:	ft40.cfg
Test File Name:	monotonic_0.2540_typeiv_solid_090_dimension.tst
Displacement	Force	Running Time
mm	N	s
-37.1258	-108.736	0.0227051
-37.1254	-108.404	0.0910645
-37.1198	-104.842	0.159424
-37.1142	-103.164	0.2277832
-37.1085	-99.0159	0.296143
-37.1012	-97.5433	0.364502
-37.0963	-95.7029	0.432861
-37.0915	-90.6392	0.5012207
-37.0849	-88.6437	0.56958
-37.0799	-83.7642	0.637939
-37.0741	-73.59684	0.706299
-37.0684	-71.02327	0.7746582
-37.0626	-68.1644	0.843018
-37.0562	-64.7619	0.911377
-37.0516	-62.3859	0.979736
-37.04504	-61.394	1.0481
-37.0402	-59.3587	1.11646
-37.034	-55.4919	1.18481
-37.0285	-53.9704	1.25317
-37.02285	-48.37	1.32153
-37.017	-39.125	1.38989
-37.01165	-35.1378	1.458252
-37.0068	-32.9183	1.52661
-37.0005	-28.4232	1.59497
-36.9945	-26.6403	1.66333
-36.9886	-23.6872	1.73169
-36.9838	-22.9177	1.80005
-36.9779	-21.63843	1.86841
-36.9722	-20.255	1.93677
-36.9671	-13.2804	2.005127
-36.96003	-5.8165	2.07349
-36.9552	-2.15879	2.14185
-36.9483	2.19487	2.21021
-36.94363	6.74339	2.27856
-36.9367	9.76698	2.34692
-36.9328	11.8011	2.41528
-36.9261	11.3861	2.48364
-36.9205	12.9129	2.552002
-36.9148	14.8302	2.62036
-36.9089	22.2929	2.68872
-36.9032	26.7736	2.75708
-36.8978	31.1569	2.82544
-36.892	38.99786	2.8938
-36.8864	40.8753	2.96216
-36.8805	46.2016	3.03052
-36.8746	47.8267	3.098877
-36.86985	48.6916	3.16724
-36.8647	47.5112	3.2356
-36.8586	51.3983	3.30396
-36.8525	58.8899	3.37231
-36.84594	60.1578	3.44067
-36.8409	66.64875	3.50903
-36.8347	72.0454	3.57739
-36.8304	74.4913	3.645752
-36.824	81.327	3.71411
-36.8164	85.2979	3.78247
-36.8122	84.77829	3.85083
-36.8063	83.4952	3.91919
-36.7997	86.0426	3.98755
-36.7946	90.67955	4.05591
-36.789	93.5216	4.12427
-36.7847	100.4735	4.192627
-36.7772	105.7914	4.26099
-36.7728	107.4	4.32935
-36.76672	116.125	4.39771
-36.7609	118.621	4.46606
-36.7551	116.53	4.53442
-36.7505	120.434	4.60278
-36.7437	125.406	4.67114
-36.739	125.129	4.739502
-36.7337	127.7459	4.80786
-36.7273	134.776	4.87622
-36.7209	138.025	4.94458
-36.7162	142.4409	5.01294
-36.70932	150.02	5.0813
-36.7043	153.501	5.14966
-36.69804	153.111	5.21802
-36.6922	153.182	5.286377
-36.6872	159.488	5.35474
-36.6805	159.789	5.4231
-36.6766	160.132	5.49146
-36.6705	166.539	5.55981
-36.6649	169.907	5.62817
-36.6585	175.782	5.69653
-36.6536	182.813	5.76489
-36.6463	186.149	5.833252
-36.6415	185.833	5.90161
-36.6349	188.583	5.96997
-36.6302	194.8053	6.03833
-36.6243	193.9015	6.10669
-36.6183	196.232	6.17505
-36.6125	200.826	6.24341
-36.6074	202.531	6.31177
-36.6016	206.937	6.380127
-36.5962	213.972	6.44849
-36.5904	216.98	6.51685
-36.584	218.816	6.58521
-36.5786	224.915	6.65356
-36.573	229.9158	6.72192
-36.5675	229.216	6.79028
-36.562	229.468	6.85864
-36.5557	232.306	6.927002
-36.5504	233.249	6.99536
-36.5443	237.593	7.06372
-36.5388	244.078	7.13208
-36.5333	245.609	7.20044
-36.5268	250.326	7.2688
-36.5214	258.049	7.33716
-36.5168	261.167	7.40552
-36.5102	261.3468	7.473877
-36.504	262.546	7.54224
-36.4986	265.017	7.6106
-36.4942	266.81	7.67896
-36.488	269.929	7.74731
-36.4826	275.503	7.81567
-36.4768	273.909	7.88403
-36.4705	280.096	7.95239
-36.4652	289.1	8.020752
-36.4596	292.801	8.08911
-36.4532	293.505	8.15747
-36.4475	297.498	8.22583
-36.4423	296.339	8.29419
-36.4368	298.563	8.36255
-36.431	300.668	8.43091
-36.4249	304.903	8.49927
-36.4199	304.218	8.567627
-36.4138	311.997	8.63599
-36.408	320.119	8.70435
-36.4022	322.814	8.77271
-36.3965	323.893	8.84106
-36.392	326.544	8.90942
-36.3861	328.848	8.97778
-36.3791	329.5029	9.04614
-36.3726	331.829	9.114502
-36.3682	332.3	9.18286
-36.3626	333.025	9.25122
-36.3568	340.593	9.31958
-36.3506	346.009	9.38794
-36.3458	350.665	9.4563
-36.3396	352.884	9.52466
-36.3345	356.282	9.59302
-36.3275	360.166	9.661377
-36.3223	359.577	9.72974
-36.3168	358.9169	9.7981
-36.3124	359.003	9.86646
-36.3058	360.247	9.93481
-36.3003	367.173	10.0032
-36.2945	371.796	10.0715
-36.2879	376.362	10.1399
-36.2833	381.83	10.2083
-36.2774	381.008	10.2766
-36.2712	387.223	10.345
-36.2648	386.413	10.41333
-36.2606	387.325	10.4817
-36.2529	384.139	10.55
-36.2481	389.2114	10.6184
-36.242	394.755	10.6868
-36.2363	395.4043	10.7551
-36.23167	399.857	10.8235
-36.2256	405.262	10.8918
-36.2204	406.636	10.9602
-36.2138	411.451	11.0286
-36.2095	413.1503	11.0969
-36.2029	409.223	11.1653
-36.1974	410.148	11.2336
-36.1911	412.65	11.302
-36.1863	415.178	11.3704
-36.1803	414.948	11.4387
-36.1754	422.723	11.50708
-36.169	424.2627	11.5754
-36.1637	428.127	11.6438
-36.1575	431.67	11.7122
-36.1508	433.173	11.7805
-36.1464	430.4993	11.8489
-36.1411	430.283	11.9172
-36.1342	433.5741	11.9856
-36.1285	431.966	12.054
-36.1239	434.304	12.1223
-36.1187	438.792	12.1907
-36.1118	440.212	12.259
-36.10638	443.845	12.3274
-36.10146	448.521	12.3958
-36.094	450.036	12.4641
-36.09008	445.563	12.5325
-36.0838	448.297	12.60083
-36.0772	450.409	12.6692
-36.0725	447.056	12.7375
-36.0666	448.5271	12.8059
-36.0606	451.634	12.8743
-36.0553	452.381	12.9426
-36.0495	457.192	13.011
-36.04364	460.789	13.0793
-36.0382	460.567	13.1477
-36.032	457.333	13.2161
-36.0267	460.0408	13.2844
-36.0197	462.617	13.3528
-36.0139	456.736	13.4211
-36.0092	458.491	13.4895
-36.0039	459.151	13.5579
-35.9979	459.272	13.6262
-35.9928	462.055	13.69458
-35.987	466.333	13.7629
-35.9804	463.884	13.8313
-35.9753	464.659	13.8997
-35.9704	467.597	13.968
-35.9653	467.452	14.0364
-35.9579	463.543	14.1047
-35.95179	464.251	14.1731
-35.9475	462.41	14.2415
-35.94173	461.436	14.3098
-35.9356	464.837	14.3782
-35.9297	468.811	14.4465
-35.9249	464.799	14.5149
-35.9178	466.457	14.5833
-35.9122	472.429	14.6516
-35.9074	469.728	14.72
-35.9021	467.096	14.78833
-35.8958	466.322	14.8567
-35.8893	465.103	14.925
-35.8841	463.744	14.9934
-35.8785	464.675	15.0618
-35.874	464.861	15.1301
-35.8672	463.361	15.1985
-35.86116	463.438	15.2668
-35.8553	470.278	15.3352
-35.85	468.673	15.4036
-35.8442	466.176	15.4719
-35.83831	466.361	15.5403
-35.8328	464.32	15.6086
-35.8269	461.6944	15.677
-35.8208	460.723	15.7454
-35.8162	459.596	15.8137
-35.8114	458.298	15.88208
-35.8047	462.444	15.9504
-35.79763	465.543	16.0188
-35.7919	465.463	16.0872
-35.7869	464.58	16.1555
-35.7824	462.904	16.2239
-35.77668	460.254	16.2922
-35.7694	458.401	16.3606
-35.7656	457.224	16.429
-35.7587	454.146	16.4973
-35.753	453.136	16.5657
-35.7483	457.6124	16.634
-35.741	459.763	16.7024
-35.7362	460.959	16.7708
-35.7314	460.817	16.8391
-35.724	460.393	16.9075
-35.7188	459.225	16.97583
-35.7132	456.821	17.0442
-35.7075	453.887	17.1125
-35.7014	449.898	17.1809
-35.69664	450.059	17.2493
-35.6903	453.392	17.3176
-35.6843	454.982	17.386
-35.678	454.321	17.4543
-35.673	457.764	17.5227
-35.668	455.999	17.5911
-35.6615	455.554	17.6594
-35.6556	453.674	17.7278
-35.6499	449.634	17.7961
-35.6453	444.389	17.8645
-35.6381	447.4234	17.9329
-35.634	448.617	18.0012
-35.628	447.453	18.06958
-35.6215	450.803	18.1379
-35.6162	450.9	18.2063
-35.6098	452.602	18.2747
-35.6049	452.55	18.343
-35.5997	450.467	18.4114
-35.594	445.621	18.4797
-35.58638	441.513	18.5481
-35.5817	442.9364	18.6165
-35.5758	443.244	18.6848
-35.5715	441.954	18.7532
-35.5652	443.69	18.8215
-35.55928	446.557	18.8899
-35.553	444.244	18.9583
-35.5476	444.188	19.0266
-35.5416	440.15	19.095
[...]
-35.4391	-39.6764	20.3352
-35.4378	-45.3072	20.3547
-35.435	-48.8403	20.3743
-35.4344	-37.2681	20.3938
-35.4324	-42.0664	20.41333
-35.4311	-46.4211	20.4329
-35.4295	-42.0083	20.4524
-35.4274	-38.60561	20.4719
-35.4256	-43.736	20.4915
-35.4239	-41.7489	20.511
-35.4216	-44.7893	20.5305
-35.4205	-44.827	20.55
-35.4184	-43.6394	20.56958
-35.417	-36.13242	20.5891
-35.4158	-43.5735	20.6086
-35.41481	-43.8209	20.6282
-35.4124	-41.1054	20.6477
-35.4111	-40.243	20.6672
-35.4095	-47.7906	20.6868
-35.4073	-40.0215	20.7063
-35.4062	-39.6946	20.72583
-35.4049	-45.0606	20.7454
-35.403	-44.3584	20.7649
-35.4005	-39.4845	20.7844
-35.3997	-46.1434	20.804
-35.3984	-40.9316	20.8235
-35.3956	-39.182	20.843
-35.395	-47.0149	20.8625
-35.3935	-47.13	20.88208
-35.3921	-39.8258	20.9016
-35.3905	-43.9852	20.9211
-35.3881	-45.6029	20.9407
-35.3861	-39.004	20.9602
-35.3863	-45.3166	20.9797
-35.3828	-47.4498	20.9993
-35.3809	-40.4781	21.0188
-35.3801	-42.0836	21.03833
-35.3791	-45.9977	21.0579
-35.37569	-38.2624	21.0774
-35.3752	-42.6383	21.0969
-35.3735	-44.7777	21.1165
-35.3719	-44.0708	21.136
-35.371	-38.1221	21.1555
-35.369	-44.9683	21.175
-35.3671	-42.2553	21.19458
-35.3654	-43.5297	21.2141
-35.3639	-43.2509	21.2336
-35.3626	-45.5111	21.2532
-35.3605	-38.5539	21.2727
-35.3586	-42.7956	21.2922
-35.3577	-46.1308	21.3118
-35.3566	-42.667	21.3313
-35.3542	-40.5382	21.35083
-35.35207	-46.8264	21.3704
-35.3507	-42.1608	21.3899
-35.3488	-39.663	21.4094
-35.3483	-44.4317	21.429
-35.3456	-45.2156	21.4485
-35.3438	-39.8173	21.468
-35.3427	-44.314	21.4875
-35.34071	-43.9194	21.50708
-35.3391	-38.1104	21.5266
-35.3373	-46.5377	21.5461
-35.3359	-47.4442	21.5657
-35.3354	-39.4228	21.5852
-35.3347	-41.5951	21.6047
-35.3314	-45.7517	21.6243
-35.3297	-39.8266	21.6438
-35.3284	-44.1602	21.66333
-35.3275	-43.9832	21.6829
-35.3249	-41.354	21.7024
-35.3234	-39.8439	21.7219
-35.3212	-45.0173	21.7415
-35.3205	-40.4274	21.761
-35.3175	-42.4683	21.7805
-35.3165	-44.7876	21.8
-35.3147	-45.7003	21.81958
-35.3125	-38.1755	21.8391
-35.3119	-44.168	21.8586
-35.3096	-43.9314	21.8782
-35.3087	-43.7542	21.8977
-35.3057	-40.8947	21.9172
-35.3056	-45.7732	21.9368
-35.3034	-39.8882	21.9563
-35.3016	-41.7886	21.97583
-35.3012	-47.1994	21.9954
-35.2984	-42.1533	22.0149
-35.2976	-37.6121	22.0344
-35.29528	-46.5434	22.054
-35.2935	-44.1751	22.0735
-35.2917	-37.6593	22.093
-35.2915	-46.2001	22.1125
-35.2888	-46.459	22.13208
-35.2874	-41.2794	22.1516
-35.2845	-43.8968	22.1711
-35.2845	-44.8581	22.1907
-35.2824	-39.24712	22.2102
-35.2802	-45.9367	22.2297
-35.2796	-45.92865	22.2493
-35.2774	-40.1855	22.2688
-35.2771	-40.6808	22.28833
-35.27404	-47.6081	22.3079
-35.2727	-41.4625	22.3274
-35.2718	-43.73671	22.3469
-35.2695	-43.558	22.3665
-35.2669	-43.6413	22.386
-35.2665	-39.41198	22.4055
-35.2642	-44.8731	22.425
-35.26165	-42.9129	22.44458
-35.2598	-43.0039	22.4641
-35.2604	-43.3369	22.4836
-35.2584	-47.2851	22.5032
-35.2567	-39.3095	22.5227
-35.25507	-42.889	22.5422
-35.25275	-45.52195	22.5618
-35.2515	-43.72974	22.5813
-35.2497	-41.7552	22.60083
-35.248	-46.8195	22.6204
-35.2464	-43.141	22.6399
-35.2454	-39.6583	22.6594
-35.2432	-48.4003	22.679
-35.24118	-44.2007	22.6985
-35.2397	-37.8722	22.718
-35.2373	-46.004	22.7375
-35.2368	-46.001	22.75708
-35.2352	-38.0004	22.7766
-35.2343	-45.805	22.7961
-35.2322	-45.1995	22.8157
-35.2309	-41.2774	22.8352
-35.228	-41.87796	22.8547
-35.22665	-46.0456	22.8743
-35.2253	-38.06496	22.8938
-35.2236	-46.284	22.91333
-35.221	-45.9643	22.9329
-35.2203	-41.836	22.9524
-35.2176	-38.9928	22.9719
-35.2171	-45.1185	22.9915
-35.2154	-42.5619	23.011
-35.2149	-41.8889	23.0305
-35.2125	-44.2435	23.05
-35.2112	-45.2296	23.06958

File: 0.254_solid_dimension_typeiv_090_r(9).dat
MTS793|BTW|ENU|1|2|.|/|:|1|0|0|A

Data Header:			0.254_solid_dimension_typeiv_090_r0			Time:	20.0173	s	4/14/2019 2:06:39 AM
Data Acquisition:	Timed
Station Name:	ft40.cfg
Test File Name:	monotonic_0.2540_typeiv_solid_090_dimension.tst
Displacement	Force	Running Time
mm	N	s
-40.0407	-106.905	0.0224609
-40.0406	-103.448	0.0908203
-40.034	-100.759	0.15918
-40.0297	-98.7092	0.227539
-40.0241	-93.5609	0.295898
-40.0178	-88.2402	0.364258
-40.0119	-87.9504	0.432617
-40.0064	-88.0214	0.500977
-39.9999	-82.2579	0.569336
-39.99461	-80.89167	0.637695
-39.9899	-75.1539	0.706055
-39.9841	-68.8446	0.774414
-39.9771	-65.4647	0.842773
-39.9713	-63.6964	0.911133
-39.9677	-56.5974	0.979492
-39.96	-49.4266	1.04785
-39.9545	-49.71209	1.11621
-39.9494	-48.836	1.18457
-39.9441	-45.199	1.25293
-39.9379	-44.3563	1.32129
-39.9324	-39.6835	1.38965
-39.9261	-33.1523	1.45801
-39.9203	-30.2005	1.52637
-39.9152	-28.5398	1.59473
-39.9098	-20.6934	1.66309
-39.9036	-15.1919	1.73145
-39.8984	-14.198	1.7998
-39.8917	-11.4962	1.86816
-39.8867	-8.46252	1.93652
-39.8812	-7.09013	2.00488
-39.8757	-2.79268	2.07324
-39.8696	0.436455	2.1416
-39.864	5.23728	2.20996
-39.8583	8.28675	2.27832
-39.8529	15.7222	2.34668
-39.8464	21.7151	2.41504
-39.8414	23.9968	2.4834
-39.8353	26.0939	2.55176
-39.8292	27.1257	2.62012
-39.8242	29.86298	2.68848
-39.8174	33.6528	2.75684
-39.8125	36.5821	2.8252
-39.8072	39.64	2.89355
-39.8004	43.8293	2.96191
-39.7951	50.6253	3.03027
-39.7898	55.8518	3.09863
-39.7836	60.4158	3.16699
-39.7783	64.4454	3.23535
-39.7723	66.8244	3.30371
-39.7666	68.4762	3.37207
-39.7616	72.0706	3.44043
-39.7557	73.0947	3.50879
-39.7496	74.3365	3.57715
-39.7441	78.2544	3.64551
-39.7381	85.1475	3.71387
-39.73362	90.9012	3.78223
-39.72699	94.1926	3.85059
-39.7211	99.2878	3.91895
-39.7146	102.751	3.9873
-39.7102	105	4.05566
-39.7043	109.379	4.12402
-39.6983	111.274	4.19238
-39.693	110.5783	4.26074
-39.6876	112.474	4.3291
-39.6817	120.607	4.39746
-39.6746	124.687	4.46582
-39.6704	129.691	4.53418
-39.6635	136.98	4.60254
-39.65889	139.836	4.6709
-39.6515	142.334	4.73926
-39.6479	144.584	4.80762
-39.6421	147.368	4.87598
-39.6366	146.762	4.94434
-39.6302	147.878	5.0127
-39.6246	156.569	5.08105
-39.6192	160.363	5.14941
-39.6136	163.751	5.21777
-39.6079	171.686	5.28613
-39.60355	174.679	5.35449
-39.5971	176.651	5.42285
-39.59	180.022	5.49121
-39.58532	183.687	5.55957
-39.5781	180.508	5.62793
-39.5745	182.299	5.69629
-39.5672	190.715	5.76465
-39.5627	195.1602	5.83301
-39.5563	195.951	5.90137
-39.5511	203.859	5.96973
-39.5446	209.004	6.03809
-39.539	210.571	6.10645
-39.53421	214.601	6.1748
-39.52813	218.593	6.24316
-39.5227	217.434	6.31152
-39.516	216.336	6.37988
-39.5114	224.738	6.44824
-39.5054	226.357	6.5166
-39.4981	229.714	6.58496
-39.4937	235.414	6.65332
-39.487	242.81	6.72168
-39.48217	247.428	6.79004
-39.4765	250.109	6.8584
-39.4718	252.87	6.92676
-39.4651	251.772	6.99512
-39.4606	251.159	7.06348
-39.4545	257.501	7.13184
-39.4492	260.523	7.2002
-39.4422	262.566	7.26855
-39.4368	269.346	7.33691
-39.4308	273.356	7.40527
-39.4258	279.819	7.47363
-39.4203	281.442	7.54199
-39.415	285.5585	7.61035
-39.4088	284.577	7.67871
-39.4033	285.603	7.74707
-39.397	291.678	7.81543
-39.3912	292.488	7.88379
-39.3852	294.727	7.95215
-39.3791	300.011	8.02051
-39.37392	303.601	8.08887
-39.3682	309.423	8.15723
-39.36153	315.196	8.22559
-39.3561	316.47	8.29395
-39.3505	319.531	8.3623
-39.34523	319.283	8.43066
-39.3409	324.302	8.49902
-39.3338	324.776	8.56738
-39.3283	327.746	8.63574
-39.3225	330.795	8.7041
-39.3169	334.885	8.77246
-39.3121	339.474	8.84082
-39.3061	345.833	8.90918
-39.2997	348.48	8.97754
-39.2939	349.207	9.0459
-39.2895	352.153	9.11426
-39.2834	357.2197	9.18262
-39.2773	355.264	9.25098
-39.2717	358.302	9.31934
-39.2659	361.633	9.3877
-39.2602	361.547	9.45605
-39.2538	367.806	9.52441
-39.2477	374.293	9.59277
-39.2435	376.646	9.66113
-39.2385	378.758	9.72949
-39.2321	380.577	9.79785
-39.2256	387.744	9.86621
-39.2201	385.202	9.93457
-39.2143	386.788	10.00293
-39.2098	390.008	10.0713
-39.203	390.749	10.1396
-39.1975	394.549	10.208
-39.1925	401.171	10.2764
-39.1876	404.957	10.3447
-39.1805	405.6835	10.4131
-39.1752	410.726	10.4814
-39.17	416.065	10.5498
-39.1637	413.586	10.6182
-39.1575	413.602	10.6865
-39.1514	418.066	10.7549
-39.14555	417.198	10.8232
-39.1411	420.423	10.8916
-39.1358	426.565	10.96
-39.1304	430.289	11.02832
-39.124	429.151	11.09668
-39.1176	433.67	11.165
-39.1138	441.6889	11.2334
-39.1063	440.6145	11.3018
-39.1017	439.623	11.3701
-39.0944	443.0799	11.4385
-39.0893	441.889	11.5068
-39.0827	443.2063	11.5752
-39.07724	447.58	11.6436
-39.0717	449.775	11.7119
-39.0668	450.447	11.7803
-39.0618	454.055	11.8486
-39.0551	462.72	11.917
-39.04948	462.01	11.9854
-39.0427	459.913	12.0537
-39.0387	462.4032	12.12207
-39.0321	462.729	12.19043
-39.0275	463.252	12.2588
-39.0208	464.3526	12.3271
-39.0163	466.62	12.3955
-39.0104	467.564	12.4639
-39.0045	467.847	12.5322
-38.9976	476.367	12.6006
-38.99221	476.715	12.6689
-38.9875	475.215	12.7373
-38.9805	476.72	12.8057
-38.9759	474.435	12.874
-38.9692	474.6814	12.9424
-38.9641	475.574	13.0107
-38.9574	475.192	13.0791
-38.9535	473.833	13.1475
-38.9467	477.124	13.21582
-38.9418	483.814	13.28418
-38.9353	484.798	13.3525
-38.9301	484.052	13.4209
-38.9246	484.922	13.4893
-38.9185	482.732	13.5576
-38.9136	481.118	13.626
-38.9072	480.047	13.6943
-38.9012	478.848	13.7627
-38.8956	479.154	13.8311
-38.8896	479.8049	13.8994
-38.8835	484.984	13.9678
-38.8783	485.594	14.0361
-38.873	488.86	14.1045
-38.8675	488.516	14.1729
-38.8622	484.243	14.2412
-38.8552	484.63	14.30957
-38.8502	483.661	14.37793
-38.8449	477.732	14.4463
-38.8389	476.249	14.5146
-38.8333	479.828	14.583
-38.8273	481.511	14.6514
-38.8218	481.972	14.7197
-38.8152	485.351	14.7881
-38.8097	486.727	14.8564
-38.8043	483.175	14.9248
-38.7987	483.3143	14.9932
-38.79327	481.519	15.0615
-38.7867	477.052	15.1299
-38.781	473.745	15.1982
-38.7775	473.604	15.2666
-38.771	478.476	15.335
-38.7638	478.202	15.40332
-38.7583	479.575	15.47168
-38.7533	483.283	15.54
-38.7471	478.905	15.6084
-38.7415	479.818	15.6768
-38.7363	478.467	15.7451
-38.7304	474.335	15.8135
-38.7243	468.844	15.8818
-38.7185	469.898	15.9502
-38.7134	473.765	16.0186
-38.708	471.891	16.0869
-38.7018	475.468	16.1553
-38.6962	478.524	16.2236
-38.6917	476.632	16.292
-38.6841	476.172	16.3604
-38.6796	477.017	16.4287
-38.6741	473.2973	16.49707
-38.668	467.228	16.56543
-38.66087	467.365	16.6338
-38.6564	470.295	16.7021
-38.6506	468.8829	16.7705
-38.6448	468.48	16.8389
-38.639	476.023	16.9072
-38.6344	472.919	16.9756
-38.6273	473.915	17.0439
-38.6227	473.54	17.1123
-38.6175	470.229	17.1807
-38.6113	463.714	17.249
-38.60519	465.503	17.3174
-38.5993	467.859	17.3857
-38.5942	465.9176	17.4541
-38.5886	466.519	17.5225
-38.5825	470.163	17.59082
-38.5758	469.995	17.65918
-38.5711	471.153	17.7275
-38.5651	473.613	17.7959
-38.55793	469.612	17.8643
-38.5544	463.436	17.9326
-38.54771	464.204	18.001
-38.5425	466.601	18.0693
-38.5365	462.542	18.1377
-38.5304	462.559	18.2061
-38.5254	465.058	18.2744
-38.5201	467.778	18.3428
-38.514	468.3	18.4111
-38.5067	468.52	18.4795
-38.50201	466.984	18.5479
-38.4959	465.491	18.6162
-38.4909	463.492	18.68457
-38.4851	462.804	18.75293
-38.4806	461.503	18.8213
-38.474	459.785	18.8896
-38.4695	461.989	18.958
-38.4627	464.751	19.0264
-38.4573	466.173	19.0947
-38.4511	466.743	19.1631
[...]
-38.1717	-43.2829	22.50293
-38.1702	-46.9078	22.5225
-38.1689	-40.7571	22.542
-38.1665	-42.932	22.5615
-38.1656	-45.5235	22.5811
-38.164	-44.4439	22.6006
-38.1623	-41.1909	22.6201
-38.1612	-47.7505	22.6396
-38.1595	-40.9154	22.65918
-38.1564	-40.6453	22.6787
-38.1564	-47.6289	22.6982
-38.1547	-45.6165	22.7178
-38.15234	-38.813	22.7373
-38.1519	-45.6362	22.7568
-38.1499	-43.3687	22.7764
-38.149	-41.2123	22.7959
-38.1483	-47.14909	22.81543
-38.1457	-45.954	22.835
-38.1429	-38.9655	22.8545
-38.142	-44.3819	22.874
-38.1404	-48.6078	22.8936
-38.1392	-40.0788	22.9131
-38.1365	-44.4494	22.9326
-38.1363	-46.9747	22.9521
-38.1343	-42.3974	22.97168
-38.1309	-40.4292	22.9912
-38.131	-46.0402	23.0107
-38.128	-41.8224	23.0303
-38.12756	-44.228	23.0498
-38.1252	-44.4815	23.0693
-38.1237	-45.009	23.0889
-38.1215	-39.39772	23.1084
-38.1202	-45.547	23.12793
-38.1195	-46.2632	23.1475
-38.1169	-43.6253	23.167
-38.11665	-41.8241	23.1865
-38.114	-47.0361	23.2061
-38.1122	-40.9784	23.2256
-38.1109	-43.32605	23.2451
-38.1091	-46.5358	23.2646
-38.1074	-43.959	23.28418
-38.1064	-41.1821	23.3037
-38.10416	-47.8466	23.3232
-38.1027	-43.5738	23.3428
-38.10043	-40.7857	23.3623
-38.0988	-47.0253	23.3818
-38.0977	-46.6549	23.4014
-38.097	-40.0509	23.4209
-38.0956	-46.3907	23.44043
-38.0929	-45.7283	23.46
-38.0904	-41.4378	23.4795
-38.0907	-46.08416	23.499
-38.0876	-47.43399	23.5186
-38.08746	-40.1714	23.5381
-38.0838	-42.3486	23.5576
-38.083	-48.3536	23.5771
-38.0821	-41.9204	23.59668
-38.0799	-43.2097	23.6162
-38.07803	-47.6061	23.6357
-38.07618	-45.0467	23.6553
-38.075	-40.5988	23.6748
-38.0734	-46.5947	23.6943
-38.0712	-41.4622	23.7139
-38.0715	-43.76754	23.7334
-38.0688	-44.36771	23.75293
-38.0668	-47.533	23.7725
-38.0657	-40.0252	23.792
-38.0627	-43.3596	23.8115
-38.0617	-46.4436	23.8311
-38.06028	-44.3138	23.8506
-38.0586	-40.5188	23.8701
-38.0577	-46.1715	23.8896
-38.0549	-40.9119	23.90918
-38.0537	-42.0659	23.9287
-38.05151	-47.7906	23.9482
-38.05061	-45.7529	23.9678
-38.04921	-40.1556	23.9873
-38.0481	-47.4059	24.0068
-38.0465	-46.6159	24.0264
-38.0451	-38.037	24.0459
-38.0425	-45.818	24.06543
-38.042	-48.2477	24.085
-38.0387	-40.5485	24.1045
-38.0384	-43.2199	24.124
-38.0363	-47.5964	24.1436
-38.0344	-40.4981	24.1631
-38.0333	-45.4141	24.1826
-38.0311	-48.1938	24.2021
-38.0298	-40.8394	24.22168
-38.0274	-41.5563	24.2412
-38.0264	-47.228	24.2607
-38.0249	-42.2871	24.2803
-38.0229	-42.9866	24.2998
-38.0221	-44.4653	24.3193
-38.02	-45.2052	24.3389
-38.0176	-40.3182	24.3584
-38.0157	-46.333	24.37793
-38.0148	-42.7822	24.3975
-38.0121	-44.3542	24.417
-38.0115	-43.1546	24.4365
-38.0093	-48.5161	24.4561
-38.0094	-40.047	24.4756
-38.0067	-41.6476	24.4951
-38.00491	-46.4516	24.5146
-38.004	-45.61488	24.53418
-38.0017	-41.1559	24.5537
-37.9999	-46.2934	24.5732
-37.9989	-43.6014	24.5928
-37.9971	-40.9921	24.6123
-37.9966	-49.1885	24.6318
-37.9934	-45.7011	24.6514
-37.99226	-39.2074	24.6709
-37.9895	-46.9674	24.69043
-37.9882	-46.87	24.71
-37.9873	-38.8049	24.7295
-37.9867	-46.2365	24.749
-37.9839	-49.6124	24.7686
-37.9826	-42.6134	24.7881
-37.9803	-41.8887	24.8076
-37.9782	-46.103	24.8271
-37.9769	-41.906	24.84668
-37.9748	-43.8542	24.8662
-37.9748	-47.965	24.8857
-37.9717	-43.8283	24.9053
-37.9709	-38.2202	24.9248
-37.9696	-46.272	24.9443
-37.9673	-43.6505	24.9639
-37.96566	-44.49662	24.9834
-37.96434	-43.8367	25.00293
-37.9635	-47.1144	25.0225
-37.961	-40.4367	25.042
-37.9594	-44.8546	25.0615
-37.9582	-45.4957	25.0811
-37.956	-43.44	25.1006
-37.9547	-40.1962	25.1201
-37.9524	-48.9727	25.1396
-37.9523	-42.3135	25.15918
-37.9496	-39.9017	25.1787
-37.9485	-47.3971	25.1982
-37.9463	-45.3228	25.2178
-37.9457	-40.23077	25.2275