Folder: Stress_Strain_Analysis_Tools/data/processed_data_files/tensile (part 49)

File: 0.254_solid_uprint_typeiv_090_r(2).dat
MTS793|BTW|ENU|1|2|.|/|:|1|0|0|A

Data Header:			0.254_solid_uprint_typeiv_090_r0			Time:	20.0269	s	4/14/2019 1:02:36 AM
Data Acquisition:	Timed
Station Name:	ft40.cfg
Test File Name:	monotonic_0.2540_typeiv_solid_090_uprint.tst
Displacement	Force	Running Time
mm	N	s
-40.0385	-101.408	0.0317383
-40.0394	-101.867	0.100098
-40.0322	-93.7601	0.168457
-40.0263	-90.5987	0.236816
-40.0207	-85.7646	0.305176
-40.0177	-79.3543	0.373535
-40.0099	-75.5381	0.441895
-40.0036	-71.3749	0.510254
-39.9987	-70.44017	0.578613
-39.9937	-72.1232	0.646973
-39.9877	-70.37793	0.715332
-39.9819	-64.8893	0.783691
-39.9766	-60.9985	0.852051
-39.9706	-56.1277	0.92041
-39.9642	-51.1554	0.98877
-39.9583	-47.3018	1.05713
-39.9522	-42.3421	1.12549
-39.94717	-37.2049	1.19385
-39.9422	-36.063	1.262207
-39.9356	-37.1535	1.33057
-39.9313	-32.529	1.39893
-39.9245	-30.2021	1.46729
-39.9194	-27.8113	1.53564
-39.9139	-25.198	1.604
-39.90781	-18.3967	1.67236
-39.9018	-15.7613	1.74072
-39.89645	-6.43405	1.809082
-39.891	-3.80604	1.87744
-39.8854	-1.73448	1.9458
-39.8794	-2.00173	2.01416
-39.8739	2.14808	2.08252
-39.8681	6.06625	2.15088
-39.8632	5.413012	2.21924
-39.8561	9.44349	2.2876
-39.8497	16.4404	2.355957
-39.84528	17.1075	2.42432
-39.8388	27.2685	2.49268
-39.8342	30.38715	2.56104
-39.8277	32.0321	2.62939
-39.8235	32.7163	2.69775
-39.8166	40.01667	2.76611
-39.811	38.0328	2.83447
-39.8048	39.08115	2.902832
-39.799	44.1263	2.97119
-39.7938	47.1736	3.03955
-39.7878	52.3658	3.10791
-39.782	59.0226	3.17627
-39.777	62.9436	3.24463
-39.77108	65.0914	3.31299
-39.7649	68.5376	3.38135
-39.7591	74.4602	3.449707
-39.7538	74.6088	3.51807
-39.7472	73.51226	3.58643
-39.7418	77.8751	3.65479
-39.7368	80.136	3.72314
-39.7312	83.78373	3.7915
-39.7258	91.2677	3.85986
-39.7206	95.1324	3.92822
-39.7144	96.7679	3.996582
-39.7079	101.322	4.06494
-39.7032	109.089	4.1333
-39.6971	106.762	4.20166
-39.6909	108.919	4.27002
-39.6858	112.097	4.33838
-39.6802	113.4158	4.40674
-39.67392	116.586	4.4751
-39.6682	124.679	4.543457
-39.6626	127.706	4.61182
-39.6575	128.186	4.68018
-39.6506	135.317	4.74854
-39.6462	140.486	4.81689
-39.6395	141.143	4.88525
-39.6344	142.348	4.95361
-39.6306	145.368	5.02197
-39.6237	146.8586	5.090332
-39.617	149.58	5.15869
-39.6116	155.067	5.22705
-39.6065	157.594	5.29541
-39.5988	159.316	5.36377
-39.595	166.969	5.43213
-39.5889	173.097	5.50049
-39.5825	172.084	5.56885
-39.5781	177.455	5.637207
-39.5723	178.945	5.70557
-39.5666	179.298	5.77393
-39.5606	181.943	5.84229
-39.5547	185.671	5.91064
-39.5488	185.496	5.979
-39.5425	190.556	6.04736
-39.5381	198.686	6.11572
-39.5327	202.893	6.184082
-39.5255	204.171	6.25244
-39.52103	208.3501	6.3208
-39.5147	209.431	6.38916
-39.509	213.414	6.45752
-39.5043	214.101	6.52588
-39.4976	216.034	6.59424
-39.4923	215.565	6.6626
-39.4872	220.928	6.730957
-39.4804	228.57	6.79932
-39.4761	233.876	6.86768
-39.4693	236.701	6.93604
-39.46384	241.15	7.00439
-39.4578	241.132	7.07275
-39.4525	246.516	7.14111
-39.44751	244.789	7.20947
-39.4404	245.181	7.277832
-39.4345	246.298	7.34619
-39.4282	252.25	7.41455
-39.4228	257.2514	7.48291
-39.4181	261.37	7.55127
-39.4124	266.715	7.61963
-39.407	270.654	7.68799
-39.4008	273.035	7.75635
-39.3952	277.508	7.824707
-39.39027	277.395	7.89307
-39.3834	276.904	7.96143
-39.3769	276.681	8.02979
-39.3725	282.757	8.09814
-39.3665	284.34	8.1665
-39.36211	288.781	8.23486
-39.3557	295.598	8.30322
-39.3499	298.846	8.371582
-39.3432	303.541	8.43994
-39.3387	306.968	8.5083
-39.33252	305.228	8.57666
-39.3275	304.005	8.64502
-39.3213	307.209	8.71338
-39.31543	310.219	8.78174
-39.3098	311.835	8.8501
-39.305	316.364	8.918457
-39.2984	321.712	8.98682
-39.2918	323.884	9.05518
-39.2865	330.518	9.12354
-39.2819	332.66	9.19189
-39.2757	332.299	9.26025
-39.2709	331.698	9.32861
-39.2649	336.274	9.39697
-39.2578	337.489	9.465332
-39.2531	335.1738	9.53369
-39.247	340.999	9.60205
-39.2411	345.283	9.67041
-39.2367	347.524	9.73877
-39.231	354.708	9.80713
-39.2241	358.369	9.87549
-39.2197	356.87	9.94385
-39.2127	358.178	10.0122
-39.2073	362.366	10.0806
-39.20195	361.655	10.1489
-39.1966	360.265	10.2173
-39.1906	365.132	10.2856
-39.1846	368.504	10.354
-39.1797	372.257	10.4224
-39.1726	377.046	10.4907
-39.1685	381.112	10.5591
-39.1608	379.07	10.6274
-39.1557	382.146	10.6958
-39.1495	386.9751	10.76416
-39.14563	384.159	10.83252
-39.1402	384.266	10.9009
-39.1322	387.012	10.9692
-39.1283	388.208	11.0376
-39.1223	390.649	11.106
-39.1156	395.889	11.1743
-39.1108	399.238	11.2427
-39.1048	397.464	11.311
-39.0993	403.327	11.3794
-39.0928	407.9624	11.4478
-39.0878	402.48	11.5161
-39.082	405.8147	11.5845
-39.07589	405.448	11.6528
-39.0703	405.828	11.7212
-39.0653	407.32	11.7896
-39.0594	413.285	11.85791
-39.0536	414.592	11.92627
-39.0475	413.292	11.9946
-39.043	418.6514	12.063
-39.0361	421.438	12.1313
-39.031	420.832	12.1997
-39.024	419.21	12.2681
-39.0191	419.955	12.3364
-39.0147	418.053	12.4048
-39.0085	420.092	12.4731
-39.0028	423.0723	12.5415
-38.9968	423.22	12.6099
-38.9924	424.593	12.6782
-38.9853	429.406	12.7466
-38.9797	431.662	12.8149
-38.9734	431.786	12.8833
-38.9678	430.709	12.95166
-38.9621	429.699	13.02002
-38.956	430.139	13.0884
-38.95155	429.0954	13.1567
-38.9453	428.941	13.2251
-38.9401	428.484	13.2935
-38.9336	431.293	13.3618
-38.9289	434.57	13.4302
-38.9226	436.244	13.4985
-38.9177	437.19	13.5669
-38.9121	434.946	13.6353
-38.905	433.994	13.7036
-38.8995	434.059	13.772
-38.89423	432.8866	13.8403
-38.8892	430.8129	13.9087
-38.8823	430.5343	13.9771
-38.87587	433.51	14.04541
-38.8714	436.883	14.11377
-38.8656	436.932	14.1821
-38.85968	438.1759	14.2505
-38.85527	439.437	14.3188
-38.8486	437.135	14.3872
-38.8436	437.209	14.4556
-38.8377	434.161	14.5239
-38.8304	431.819	14.5923
-38.8267	429.21	14.6606
-38.8201	433.46	14.729
-38.8147	435.253	14.7974
-38.8092	435.958	14.8657
-38.803	439.372	14.9341
-38.797	438.069	15.0024
-38.7916	438.221	15.0708
-38.7866	437.488	15.13916
-38.7797	436.199	15.20752
-38.7742	428.5954	15.2759
-38.7698	430.149	15.3442
-38.76376	432.128	15.4126
-38.7575	431.085	15.481
-38.7521	431.9989	15.5493
-38.7455	435.308	15.6177
-38.7414	434.506	15.686
-38.7349	436.807	15.7544
-38.7298	436.475	15.8228
-38.7233	432.279	15.8911
-38.7177	426.874	15.9595
-38.71143	427.095	16.0278
-38.7065	429.495	16.0962
-38.6994	426.0921	16.1646
-38.6933	428.365	16.23291
-38.6889	431.799	16.30127
-38.6836	430.6315	16.3696
-38.6778	432.991	16.438
-38.6717	435.759	16.5063
-38.66592	430.768	16.5747
-38.6609	425.293	16.6431
-38.6546	427.3891	16.7114
-38.6491	427.104	16.7798
-38.6429	422.628	16.8481
-38.6381	425.397	16.9165
-38.6327	427.71	16.9849
-38.6268	427.652	17.0532
-38.6209	430.843	17.1216
-38.6152	433.332	17.1899
-38.6095	427.9823	17.2583
-38.6032	424.811	17.32666
-38.5976	426.558	17.39502
-38.5917	424.6861	17.4634
-38.5873	419.732	17.5317
-38.5795	421.445	17.6001
-38.575	424.42	17.6685
-38.5702	423.815	17.7368
-38.5629	427.799	17.8052
-38.5585	430.609	17.8735
-38.55286	425.0105	17.9419
-38.54668	426.112	18.0103
-38.54147	428.016	18.0786
-38.5353	423.802	18.147
-38.5301	419.211	18.2153
-38.5244	421.15	18.2837
-38.5179	419.671	18.3521
-38.5129	421.587	18.42041
-38.506	424.966	18.48877
-38.5016	425.18	18.5571
-38.495	422.93	18.6255
-38.49	424.624	18.6938
-38.4841	428.167	18.7622
-38.4777	422.701	18.8306
-38.4718	421.407	18.8989
-38.4677	420.482	18.9673
-38.4608	418.69	19.0356
-38.4566	419.246	19.104
[...]
-38.1677	419.597	22.55127
-38.16555	419.892	22.5806
-38.1639	420.406	22.6099
-38.1605	421.233	22.63916
-38.1583	416.6	22.6685
-38.1558	422.042	22.6978
-38.1532	418.796	22.7271
-38.151	422.3895	22.7563
-38.1502	416.771	22.7856
-38.145	421.8591	22.8149
-38.1434	416.704	22.8442
-38.1417	419.451	22.8735
-38.1377	417.0661	22.9028
-38.137	422.142	22.9321
-38.1337	419.1123	22.9614
-38.1316	418.094	22.9907
-38.1293	418.82	23.02002
-38.127	418.854	23.0493
-38.1247	420.492	23.0786
-38.1206	414.6156	23.10791
-38.1204	423.721	23.1372
-38.1174	416.332	23.1665
-38.1149	419.121	23.1958
-38.112	412.04	23.2251
-38.1091	424.055	23.2544
-38.1068	413.512	23.2837
-38.1052	420.697	23.313
-38.1037	413.956	23.3423
-38.1005	422.869	23.3716
-38.0964	413.505	23.4009
-38.0948	418.571	23.4302
-38.0925	417.927	23.4595
-38.0899	419.076	23.48877
-38.088	416.735	23.5181
-38.0853	415.313	23.5474
-38.0821	419.548	23.57666
-38.0797	414.26	23.606
-38.0777	420.787	23.6353
-38.0754	414.823	23.6646
-38.07177	423.066	23.6938
-38.0704	411.6972	23.7231
-38.0682	421.737	23.7524
-38.0646	414.288	23.7817
-38.0634	420.117	23.811
-38.0599	413.164	23.8403
-38.0583	419.801	23.8696
-38.0569	415.519	23.8989
-38.0531	416.968	23.9282
-38.0523	412.374	23.95752
-38.04895	416.398	23.9868
-38.04567	418.904	24.0161
-38.0442	414.67	24.04541
-38.0421	416.366	24.0747
-38.0387	415.46	24.104
-38.0365	417.7218	24.1333
-38.0341	411.099	24.1626
-38.0312	418.071	24.1919
-38.0289	414.398	24.2212
-38.0261	417.767	24.2505
-38.024	411.508	24.2798
-38.0223	416.703	24.3091
-38.0188	413.303	24.3384
-38.0173	415.11	24.3677
-38.0147	413.4	24.397
-38.0121	415.23	24.42627
-38.0095	415.615	24.4556
-38.0074	412.138	24.4849
-38.005	414.43	24.51416
-38.002	412.727	24.5435
-37.9994	416.49	24.5728
-37.99778	411.653	24.6021
-37.9949	417.034	24.6313
-37.9931	410.235	24.6606
-37.9896	412.517	24.6899
-37.9877	409.413	24.7192
-37.9845	415.351	24.7485
-37.9826	409.262	24.7778
-37.9801	410.105	24.8071
-37.97813	407.766	24.8364
-37.9748	405.499	24.8657
-37.9699	-23.2537	24.89502
-37.9687	-39.9154	24.9243
-37.9661	-37.8336	24.9536
-37.9642	-40.8871	24.98291
-37.9627	-38.5853	25.0122
-37.96003	-42.8065	25.0415
-37.9574	-36.1447	25.0708
-37.9548	-43.1748	25.1001
-37.9532	-37.28175	25.1294
-37.9504	-44.6442	25.1587
-37.9482	-36.0181	25.188
-37.9459	-45.054	25.2173
-37.9431	-38.6099	25.2466
-37.9412	-42.23983	25.2759
-37.9379	-37.726	25.3052
-37.9358	-39.5558	25.3345
-37.9336	-40.13644	25.36377
-37.9314	-38.04348	25.3931
-37.9286	-42.3029	25.4224
-37.927	-39.1983	25.45166
-37.924	-41.9138	25.481
-37.92207	-34.8574	25.5103
-37.9191	-44.9053	25.5396
-37.9166	-35.9269	25.5688
-37.9147	-45.12558	25.5981
-37.9114	-36.9051	25.6274
-37.9106	-45.9433	25.6567
-37.907	-36.6328	25.686
-37.9047	-42.7469	25.7153
-37.9022	-39.075	25.7446
-37.8997	-46.2291	25.7739
-37.897	-40.3903	25.8032
-37.8944	-40.5567	25.83252
-37.8913	-40.1436	25.8618
-37.8896	-41.41732	25.8911
-37.888	-41.3994	25.92041
-37.8853	-39.6465	25.9497
-37.8822	-46.51088	25.979
-37.8802	-39.29493	26.0083
-37.8785	-43.6874	26.0376
-37.87468	-37.3563	26.0669
-37.8733	-45.98587	26.0962
-37.8718	-36.6378	26.1255
-37.8675	-43.70092	26.1548
-37.86602	-40.2672	26.1841
-37.8641	-43.6423	26.2134
-37.8607	-38.5913	26.2427
-37.8578	-42.8019	26.272
-37.8557	-39.133	26.30127
-37.8534	-40.8791	26.3306
-37.8504	-41.6849	26.3599
-37.84845	-41.7825	26.38916
-37.8455	-43.8125	26.4185
-37.84341	-35.5081	26.4478
-37.8411	-41.3989	26.4771
-37.8381	-39.96405	26.5063
-37.8352	-42.8215	26.5356
-37.8335	-37.4006	26.5649
-37.832	-44.285	26.5942
-37.8295	-39.3998	26.6235
-37.82634	-41.3327	26.6528
-37.8234	-38.4264	26.6821
-37.8226	-38.2241	26.6919

File: 0.254_solid_uprint_typeiv_090_r(3).dat
MTS793|BTW|ENU|1|2|.|/|:|1|0|0|A

Data Header:			0.254_solid_uprint_typeiv_090_r0			Time:	20.02124	s	4/14/2019 1:04:37 AM
Data Acquisition:	Timed
Station Name:	ft40.cfg
Test File Name:	monotonic_0.2540_typeiv_solid_090_uprint.tst
Displacement	Force	Running Time
mm	N	s
-40.0403	-203.276	0.0229492
-40.0401	-201.98	0.0913086
-40.0353	-199.123	0.159668
-40.0297	-197.96	0.228027
-40.0232	-189.517	0.296387
-40.0184	-184.324	0.364746
-40.0121	-180.153	0.433105
-40.00676	-178.352	0.501465
-40.0001	-171.952	0.569824
-39.9945	-169.996	0.638184
-39.99	-168.684	0.706543
-39.9836	-166.26	0.774902
-39.9767	-164.396	0.843262
-39.9716	-163.097	0.911621
-39.96653	-156.041	0.97998
-39.9616	-148.208	1.04834
-39.9545	-147.117	1.1167
-39.95034	-145.029	1.18506
-39.9436	-138.455	1.253418
-39.9381	-133.78	1.32178
-39.9323	-134.855	1.39014
-39.926	-131.82	1.4585
-39.9207	-128.496	1.52686
-39.9157	-127.901	1.59521
-39.9096	-121.9788	1.66357
-39.9045	-114.692	1.73193
-39.8987	-114.202	1.800293
-39.8929	-111.672	1.86865
-39.8869	-102.957	1.93701
-39.8808	-99.3599	2.00537
-39.8755	-99.5982	2.07373
-39.8693	-97.0496	2.14209
-39.8651	-92.56826	2.21045
-39.8588	-93.4379	2.27881
-39.8529	-89.0324	2.347168
-39.8479	-82.6278	2.41553
-39.8413	-81.2875	2.48389
-39.8361	-78.9526	2.55225
-39.8307	-69.3094	2.62061
-39.8248	-64.0047	2.68896
-39.81945	-66.0824	2.75732
-39.81284	-60.8607	2.82568
-39.8078	-58.0205	2.894043
-39.8015	-56.4261	2.9624
-39.7959	-55.2925	3.03076
-39.79031	-49.6903	3.09912
-39.7844	-47.7933	3.16748
-39.7794	-45.0693	3.23584
-39.7727	-37.22963	3.3042
-39.7677	-31.1014	3.37256
-39.7625	-28.8337	3.440918
-39.7555	-27.2489	3.50928
-39.7511	-23.21563	3.57764
-39.7452	-21.2467	3.646
-39.7401	-20.0079	3.71436
-39.7338	-18.26	3.78271
-39.727	-14.96615	3.85107
-39.7223	-13.5548	3.91943
-39.7183	-4.09822	3.987793
-39.7104	2.17209	4.05615
-39.705	3.47213	4.12451
-39.6984	7.787158	4.19287
-39.6942	10.4261	4.26123
-39.687	13.3221	4.32959
-39.6823	15.1645	4.39795
-39.6757	16.892	4.46631
-39.6697	17.0509	4.534668
-39.6651	20.8046	4.60303
-39.6586	28.5176	4.67139
-39.6545	34.063	4.73975
-39.6496	38.5966	4.80811
-39.6416	42.303	4.87646
-39.6377	44.5338	4.94482
-39.63073	48.237	5.01318
-39.6243	51.7807	5.081543
-39.61879	52.5923	5.1499
-39.614	53.9381	5.21826
-39.6075	55.358	5.28662
-39.603	62.1795	5.35498
-39.5972	67.069	5.42334
-39.5912	69.8343	5.4917
-39.5856	76.54789	5.56006
-39.5801	78.8212	5.628418
-39.5738	83.4466	5.69678
-39.5681	87.1609	5.76514
-39.5628	88.265	5.8335
-39.5573	86.5866	5.90186
-39.552	90.1089	5.97021
-39.5452	95.8172	6.03857
-39.5394	99.1381	6.10693
-39.5347	103.343	6.175293
-39.5282	110.7841	6.24365
-39.5219	113.96	6.31201
-39.517	115.917	6.38037
-39.512	122.2466	6.44873
-39.5063	123.736	6.51709
-39.5006	120.059	6.58545
-39.4942	123.562	6.65381
-39.4884	131.103	6.722168
-39.4823	131.5743	6.79053
-39.4764	132.874	6.85889
-39.472	139.953	6.92725
-39.46735	146.497	6.99561
-39.4596	149.014	7.06396
-39.4542	154.489	7.13232
-39.4493	158.807	7.20068
-39.4434	154.493	7.269043
-39.4374	156.166	7.3374
-39.4319	161.181	7.40576
-39.426	163.304	7.47412
-39.4204	166.536	7.54248
-39.4145	172.6701	7.61084
-39.4089	177.487	7.6792
-39.4029	183.806	7.74756
-39.3974	186.801	7.815918
-39.3922	190.16	7.88428
-39.3861	189.126	7.95264
-39.3806	189.244	8.021
-39.37439	193.927	8.08936
-39.3688	195.017	8.15771
-39.3628	198.23	8.22607
-39.3578	201.9494	8.29443
-39.3523	208.073	8.362793
-39.3453	215.2314	8.43115
-39.3397	218.78	8.49951
-39.3357	222.479	8.56787
-39.3291	222.109	8.63623
-39.3236	224.403	8.70459
-39.3182	227.606	8.77295
-39.3118	228.21	8.84131
-39.3069	229.261	8.909668
-39.3002	233.327	8.97803
-39.2946	238.637	9.04639
-39.2898	244.409	9.11475
-39.284	248.554	9.18311
-39.2784	253.505	9.25146
-39.2718	254.046	9.31982
-39.2665	256.274	9.38818
-39.261	259.834	9.456543
-39.2548	260.52	9.5249
-39.2496	261.177	9.59326
-39.24292	264.602	9.66162
-39.2385	266.347	9.72998
-39.2323	274.7041	9.79834
-39.2262	278.885	9.8667
-39.221	283.138	9.93506
-39.2149	285.131	10.0034
-39.2099	287.383	10.0718
-39.2031	293.155	10.1401
-39.198	291.384	10.2085
-39.19186	293.234	10.2769
-39.1865	295.029	10.3452
-39.181	297.153	10.4136
-39.1751	302	10.4819
-39.1688	308.061	10.5503
-39.1638	311.338	10.6187
-39.1599	312.511	10.687
-39.15229	315.586	10.7554
-39.1461	321.37	10.82373
-39.1396	321.722	10.89209
-39.1356	320.742	10.9604
-39.1302	324.26	11.0288
-39.1238	324.334	11.0972
-39.1181	328.537	11.1655
-39.1129	336.674	11.2339
-39.10717	339.983	11.3022
-39.1013	339.637	11.3706
-39.0957	344.172	11.439
-39.0909	350.572	11.5073
-39.0841	351.513	11.5757
-39.0792	348.309	11.644
-39.073	351.521	11.7124
-39.0678	352.92	11.7808
-39.0606	355.041	11.8491
-39.0561	360.446	11.91748
-39.05	364.1597	11.98584
-39.044	367.217	12.0542
-39.0399	369.686	12.1226
-39.03199	377.615	12.1909
-39.02758	378.365	12.2593
-39.0217	377.734	12.3276
-39.0155	379.529	12.396
-39.0083	380.072	12.4644
-39.0047	379.505	12.5327
-38.9989	384.258	12.6011
-38.9938	388.762	12.6694
-38.9883	388.05	12.7378
-38.982	391.436	12.8062
-38.9753	400.976	12.8745
-38.9708	401.682	12.9429
-38.9648	401.488	13.01123
-38.9583	403.132	13.07959
-38.953	403.819	13.1479
-38.94788	404.48	13.2163
-38.9416	406.009	13.2847
-38.9366	408.324	13.353
-38.9318	409.395	13.4214
-38.9249	413.1203	13.4897
-38.91811	420.357	13.5581
-38.91404	423.405	13.6265
-38.9079	424.135	13.6948
-38.9022	423.907	13.7632
-38.8951	424.297	13.8315
-38.89114	425.436	13.8999
-38.8848	425.561	13.9683
-38.8794	426.987	14.0366
-38.87328	425.776	14.10498
-38.8684	428.605	14.17334
-38.8616	434.196	14.2417
-38.8576	437.617	14.3101
-38.8503	437.509	14.3784
-38.8449	439.9433	14.4468
-38.8386	437.853	14.5151
-38.8349	438.451	14.5835
-38.828	439.063	14.6519
-38.8219	437.042	14.7202
-38.8158	435.64	14.7886
-38.811	439.092	14.8569
-38.8058	444.127	14.9253
-38.7999	445.537	14.9937
-38.7938	447.399	15.062
-38.7867	450.172	15.1304
-38.7817	447.051	15.19873
-38.7764	447.604	15.26709
-38.771	447.251	15.3354
-38.7649	444.4895	15.4038
-38.7585	441.568	15.4722
-38.7539	443.733	15.5405
-38.7482	448.742	15.6089
-38.7423	447.818	15.6772
-38.7366	448.936	15.7456
-38.7315	451.622	15.814
-38.726	449.7218	15.8823
-38.7203	451.973	15.9507
-38.713	449.948	16.019
-38.708	446.594	16.0874
-38.703	443.242	16.1558
-38.6984	442.172	16.2241
-38.6912	448.33	16.29248
-38.6852	447.196	16.36084
-38.6798	447.579	16.4292
-38.6749	451.336	16.4976
-38.6676	451.092	16.5659
-38.6621	450.235	16.6343
-38.6571	449.599	16.7026
-38.6508	449.314	16.771
-38.6453	441.553	16.8394
-38.6397	440.987	16.9077
-38.6344	445.703	16.9761
-38.6282	442.735	17.0444
-38.6236	442.246	17.1128
-38.6173	447.5585	17.1812
-38.6116	446.477	17.2495
-38.6061	447.473	17.3179
-38.5999	446.786	17.38623
-38.5937	445.114	17.45459
-38.5878	439.003	17.5229
-38.58353	438.198	17.5913
-38.5775	440.197	17.6597
-38.5719	439.148	17.728
-38.5658	438.447	17.7964
-38.5608	441.637	17.8647
-38.5542	441.946	17.9331
-38.5489	444.132	18.0015
-38.5437	443.301	18.0698
-38.5368	445.171	18.1382
-38.5313	437.748	18.2065
-38.5266	434.713	18.2749
-38.5197	436.595	18.3433
-38.5139	435.083	18.4116
-38.5098	432.67	18.47998
-38.50317	435.689	18.54834
-38.49699	437.443	18.6167
-38.4926	440.672	18.6851
-38.48748	442.3226	18.7534
-38.4808	440.59	18.8218
-38.4747	435.395	18.8901
-38.4687	434.602	18.9585
-38.4625	435.7876	19.0269
[...]
-38.0675	425.445	23.7729
-38.065	427.635	23.8022
-38.0634	426.457	23.8315
-38.0605	426.905	23.86084
-38.0574	427.153	23.8901
-38.05629	424.562	23.9194
-38.054	426.869	23.94873
-38.0502	425.053	23.978
-38.048	427.6	24.0073
-38.0466	422.057	24.0366
-38.0431	429.201	24.0659
-38.0417	422.402	24.0952
-38.0383	426.215	24.1245
-38.0363	423.068	24.1538
-38.0334	427.967	24.1831
-38.0307	424.489	24.2124
-38.0274	422.072	24.2417
-38.025	422.598	24.271
-38.0247	423.248	24.3003
-38.0218	422.588	24.32959
-38.0196	416.858	24.3589
-38.0171	426.927	24.3882
-38.0134	417.401	24.41748
-38.011	418.784	24.4468
-38.0096	409.345	24.4761
-38.00349	-52.9248	24.5054
-38.0026	-41.848	24.5347
-38.0004	-40.402	24.564
-37.9993	-47.071	24.5933
-37.995	-39.1877	24.6226
-37.995	-46.4673	24.6519
-37.9931	-42.6165	24.6812
-37.9895	-43.6081	24.7104
-37.9854	-41.2845	24.7397
-37.9838	-42.8206	24.769
-37.9829	-44.741	24.79834
-37.97998	-41.627	24.8276
-37.9776	-45.3086	24.8569
-37.9755	-37.7341	24.88623
-37.97163	-46.4405	24.9155
-37.9701	-38.7957	24.9448
-37.9671	-46.457	24.9741
-37.96542	-38.8105	25.0034
-37.9623	-45.6722	25.0327
-37.9604	-37.6281	25.062
-37.9581	-46.1964	25.0913
-37.9546	-38.9204	25.1206
-37.95319	-43.5778	25.1499
-37.9497	-39.9589	25.1792
-37.9481	-45.6667	25.2085
-37.9456	-41.2568	25.2378
-37.9422	-39.2082	25.26709
-37.9407	-45.1412	25.2964
-37.938	-42.4576	25.3257
-37.9364	-43.1837	25.35498
-37.933	-40.9646	25.3843
-37.9311	-45.722	25.4136
-37.929	-40.4009	25.4429
-37.926	-44.453	25.4722
-37.9233	-38.481	25.5015
-37.9211	-47.81559	25.5308
-37.9181	-41.9843	25.5601
-37.9167	-42.3827	25.5894
-37.9134	-41.4627	25.6187
-37.9103	-43.02235	25.6479
-37.9089	-43.0913	25.6772
-37.907	-42.2551	25.7065
-37.9043	-46.0718	25.73584
-37.9013	-40.7733	25.7651
-37.8997	-42.3662	25.7944
-37.8963	-39.9	25.82373
-37.893	-46.0504	25.853
-37.8922	-40.9804	25.8823
-37.889	-45.29961	25.9116
-37.8876	-40.39188	25.9409
-37.8841	-44.2441	25.9702
-37.8815	-38.0021	25.9995
-37.8794	-43.8106	26.0288
-37.8764	-41.2769	26.0581
-37.8746	-43.4512	26.0874
-37.8724	-42.412	26.1167
-37.87	-39.0305	26.146
-37.86742	-44.3767	26.1753
-37.8641	-39.2572	26.20459
-37.8634	-44.98801	26.2339
-37.8604	-40.7617	26.2632
-37.8574	-48.5838	26.29248
-37.8557	-37.0058	26.3218
-37.8523	-45.2461	26.3511
-37.84977	-38.40451	26.3804
-37.8477	-48.2451	26.4097
-37.8455	-38.2136	26.439
-37.8424	-45.5903	26.4683
-37.8407	-41.001	26.4976
-37.8384	-44.35236	26.5269
-37.8357	-37.6031	26.5562
-37.8329	-44.0125	26.5854
-37.8311	-43.7871	26.6147
-37.8272	-43.1482	26.644
-37.8251	-40.2918	26.67334
-37.8242	-39.4688	26.7026
-37.821	-43.7115	26.7319
-37.8185	-38.7508	26.76123
-37.8161	-46.1364	26.7905
-37.8128	-39.61602	26.8198
-37.811	-46.2446	26.8491
-37.8088	-36.2995	26.8784
-37.80632	-45.9862	26.9077
-37.8041	-38.9068	26.937
-37.8022	-45.30875	26.9663
-37.7988	-39.0654	26.9956
-37.7965	-45.1832	27.0249
-37.7942	-39.4626	27.0542
-37.7918	-42.8146	27.0835
-37.7898	-40.588	27.1128
-37.7866	-43.3956	27.14209
-37.78569	-44.5042	27.1714
-37.7822	-40.476	27.2007
-37.7794	-42.9388	27.22998
-37.7774	-40.292	27.2593
-37.7748	-43.3928	27.2886
-37.7731	-38.3378	27.3179
-37.771	-46.629	27.3472
-37.7668	-41.404	27.3765
-37.7662	-43.185	27.4058
-37.7623	-38.7266	27.4351
-37.7597	-45.0334	27.4644
-37.75647	-43.5165	27.4937
-37.7557	-42.3258	27.5229
-37.752	-43.5917	27.5522
-37.75034	-43.2844	27.5815
-37.7481	-44.6259	27.61084
-37.7451	-39.6085	27.6401
-37.7429	-45.25843	27.6694
-37.7407	-39.9314	27.69873
-37.7375	-44.8658	27.728
-37.73579	-38.9093	27.7573
-37.734	-45.0995	27.7866
-37.7303	-40.709	27.8159
-37.7275	-44.3157	27.8452
-37.7258	-41.0611	27.8745
-37.7255	-38.5689	27.8843