Folder: Stress_Strain_Analysis_Tools/data/processed_data_files/tensile (part 50)

File: 0.254_solid_uprint_typeiv_090_r(4).dat
MTS793|BTW|ENU|1|2|.|/|:|1|0|0|A

Data Header:			0.254_solid_uprint_typeiv_090_r0			Time:	20.0181	s	4/14/2019 1:06:27 AM
Data Acquisition:	Timed
Station Name:	ft40.cfg
Test File Name:	monotonic_0.2540_typeiv_solid_090_uprint.tst
Displacement	Force	Running Time
mm	N	s
-40.0411	-64.3732	0.0229492
-40.0411	-63.4738	0.0913086
-40.035	-58.327	0.159668
-40.0287	-57.0073	0.228027
-40.0232	-55.3238	0.296387
-40.0177	-52.66	0.364746
-40.0113	-51.7284	0.433105
-40.0071	-51.6418	0.501465
-40.001	-43.8916	0.569824
-39.9954	-37.8719	0.638184
-39.9894	-33.727	0.706543
-39.9837	-31.8479	0.774902
-39.9785	-24.6454	0.843262
-39.9724	-21.6347	0.911621
-39.966	-19.9409	0.97998
-39.9609	-17.9008	1.04834
-39.9562	-17.5058	1.1167
-39.94981	-16.7145	1.18506
-39.9446	-10.2855	1.253418
-39.938	-6.68764	1.32178
-39.9338	-1.4456	1.39014
-39.9265	3.77563	1.4585
-39.9216	7.69269	1.52686
-39.9157	13.2081	1.59521
-39.90976	15.92572	1.66357
-39.9047	16.8508	1.73193
-39.8988	15.9505	1.800293
-39.8926	17.689	1.86865
-39.8877	24.1761	1.93701
-39.8822	27.6325	2.00537
-39.8755	32.7971	2.07373
-39.8698	36.4708	2.14209
-39.8647	40.82375	2.21045
-39.8596	47.6181	2.27881
-39.85207	51.1672	2.347168
-39.84626	51.1073	2.41553
-39.841	53.395	2.48389
-39.835	54.7837	2.55225
-39.8297	58.67028	2.62061
-39.8241	60.3497	2.68896
-39.8182	65.394	2.75732
-39.8133	68.2674	2.82568
-39.8071	73.2954	2.894043
-39.8009	81.4258	2.9624
-39.7952	84.8931	3.03076
-39.79071	85.3263	3.09912
-39.7846	86.9319	3.16748
-39.7781	90.0849	3.23584
-39.7728	93.2755	3.3042
-39.7673	94.2116	3.37256
-39.7615	98.8005	3.440918
-39.75629	101.69	3.50928
-39.7509	106.031	3.57764
-39.7446	113.541	3.646
-39.7374	118.989	3.71436
-39.7335	115.82	3.78271
-39.7283	120.826	3.85107
-39.7222	126.803	3.91943
-39.7154	127.784	3.987793
-39.71	128.241	4.05615
-39.70459	132.279	4.12451
-39.69854	134.205	4.19287
-39.6935	137.764	4.26123
-39.6875	144.821	4.32959
-39.6804	149.622	4.39795
-39.6762	148.991	4.46631
-39.671	154.443	4.534668
-39.6649	160.854	4.60303
-39.6603	158.5258	4.67139
-39.6541	161.621	4.73975
-39.6478	164.114	4.80811
-39.64257	164.295	4.87646
-39.6361	171.649	4.94482
-39.6305	175.469	5.01318
-39.6242	179.098	5.081543
-39.6203	180.854	5.1499
-39.6143	187.951	5.21826
-39.6082	194.153	5.28662
-39.6025	193.011	5.35498
-39.5972	195.34	5.42334
-39.5919	198.587	5.4917
-39.5854	198.525	5.56006
-39.5795	199.905	5.628418
-39.5735	206.88	5.69678
-39.5684	207.342	5.76514
-39.5609	211.593	5.8335
-39.5566	219.955	5.90186
-39.551	224.676	5.97021
-39.54578	224.946	6.03857
-39.5395	227.137	6.10693
-39.5336	230.229	6.175293
-39.5284	231.417	6.24365
-39.52356	231.757	6.31201
-39.5161	237.632	6.38037
-39.512	238.958	6.44873
-39.5049	241.799	6.51709
-39.4995	250.973	6.58545
-39.4929	255.999	6.65381
-39.48859	257.442	6.722168
-39.4819	260.347	6.79053
-39.4768	263.959	6.85889
-39.4711	262.925	6.92725
-39.4666	265.712	6.99561
-39.4603	269.08	7.06396
-39.4529	268.182	7.13232
-39.4488	271.776	7.20068
-39.4431	281.987	7.269043
-39.4378	284.487	7.3374
-39.431	287.763	7.40576
-39.4254	291.877	7.47412
-39.42	293.706	7.54248
-39.4144	294.71	7.61084
-39.4084	297.301	7.6792
-39.402	299.207	7.74756
-39.3982	297.883	7.815918
-39.3917	301.3334	7.88428
-39.3863	308.816	7.95264
-39.38	312.679	8.021
-39.3739	317.1347	8.08936
-39.3687	321.69	8.15771
-39.3636	322.699	8.22607
-39.3574	324.7973	8.29443
-39.35	327.1095	8.362793
-39.34576	326.437	8.43115
-39.3406	326.255	8.49951
-39.3348	330.137	8.56787
-39.329	336.525	8.63623
-39.32333	341.3783	8.70459
-39.3158	344.509	8.77295
-39.3119	348.8421	8.84131
-39.306	351.255	8.909668
-39.3005	354.964	8.97803
-39.2945	357.071	9.04639
-39.2883	353.587	9.11475
-39.28294	355.615	9.18311
-39.2781	359.221	9.25146
-39.2717	362.33	9.31982
-39.2665	365.123	9.38818
-39.2599	370.46	9.456543
-39.2546	375.028	9.5249
-39.2495	378.276	9.59326
-39.2436	383.792	9.66162
-39.2375	385.032	9.72998
-39.2313	380.854	9.79834
-39.2264	381.812	9.8667
-39.2199	387.251	9.93506
-39.2161	385.412	10.0034
-39.2096	389.369	10.0718
-39.2035	395.379	10.1401
-39.1985	398.088	10.2085
-39.1916	404.085	10.2769
-39.1862	409.296	10.3452
-39.1802	410.333	10.4136
-39.1745	405.905	10.4819
-39.1686	407.413	10.5503
-39.164	412.128	10.6187
-39.1575	410.435	10.687
-39.1527	412.057	10.7554
-39.1463	418.898	10.82373
-39.1413	419.442	10.89209
-39.1359	423.992	10.9604
-39.1298	430.709	11.0288
-39.1234	430.996	11.0972
-39.11768	427.3912	11.1655
-39.1116	430.464	11.2339
-39.10627	435.1514	11.3022
-39.101	430.666	11.3706
-39.0946	432.087	11.439
-39.0901	436.1347	11.5073
-39.0841	435.989	11.5757
-39.0782	442.24	11.644
-39.0725	445.855	11.7124
-39.0672	445.873	11.7808
-39.06057	444.964	11.8491
-39.05645	449.274	11.91748
-39.0506	450.77	11.98584
-39.0432	447.515	12.0542
-39.0369	447.264	12.1226
-39.0323	450.641	12.1909
-39.0275	449.792	12.2593
-39.0218	452.818	12.3276
-39.0166	457.208	12.396
-39.0087	455.54	12.4644
-39.0041	456.182	12.5327
-38.9985	461.525	12.6011
-38.9934	459.665	12.6694
-38.9867	454.998	12.7378
-38.9813	457.544	12.8062
-38.9761	455.383	12.8745
-38.9701	455.998	12.9429
-38.9643	459.154	13.01123
-38.9579	460.844	13.07959
-38.953	460.23	13.1479
-38.9478	460.654	13.2163
-38.9412	465.718	13.2847
-38.9361	463.561	13.353
-38.9306	460.168	13.4214
-38.925	459.663	13.4897
-38.9186	456.251	13.5581
-38.913	457.036	13.6265
-38.9084	458.827	13.6948
-38.9022	457.385	13.7632
-38.8956	456.9436	13.8315
-38.89	458.896	13.8999
-38.8857	463.059	13.9683
-38.8781	462.516	14.0366
-38.874	459.003	14.10498
-38.8672	457.188	14.17334
-38.8616	454.883	14.2417
-38.8559	455.97	14.3101
-38.8512	453.131	14.3784
-38.8443	451.957	14.4468
-38.8392	452.906	14.5151
-38.8344	455.435	14.5835
-38.8275	458.64	14.6519
-38.8216	456.742	14.7202
-38.81691	457.879	14.7886
-38.8096	454.509	14.8569
-38.8056	451.4	14.9253
-38.7983	452.288	14.9937
-38.7934	449.906	15.062
-38.7878	445.359	15.1304
-38.7824	446.29	15.19873
-38.7756	450.694	15.26709
-38.7703	452.966	15.3354
-38.7643	454.9801	15.4038
-38.7594	454.013	15.4722
-38.7538	452.469	15.5405
-38.749	449.712	15.6089
-38.7421	449.364	15.6772
-38.7368	446.4176	15.7456
-38.7303	442.396	15.814
-38.7247	442.787	15.8823
-38.72	447.138	15.9507
-38.7134	447.609	16.019
-38.7082	448.632	16.0874
-38.7035	451.262	16.1558
-38.69696	448.215	16.2241
-38.6903	448.386	16.29248
-38.6851	447.287	16.36084
-38.6791	445.487	16.4292
-38.6744	439.349	16.4976
-38.6669	438.251	16.5659
-38.6621	442.858	16.6343
-38.65799	442.8389	16.7026
-38.6507	444.875	16.771
-38.6444	447.444	16.8394
-38.6393	445.484	16.9077
-38.6341	446.775	16.9761
-38.6277	445.786	17.0444
-38.6221	443.123	17.1128
-38.61684	436.285	17.1812
-38.6116	438.29	17.2495
-38.6047	441.872	17.3179
-38.5994	438.914	17.38623
-38.5941	442.353	17.45459
-38.5891	445.546	17.5229
-38.583	444.115	17.5913
-38.5771	445.011	17.6597
-38.5713	445.79	17.728
-38.5656	441.324	17.7964
-38.5599	435.601	17.8647
-38.5545	436.475	17.9331
-38.5488	441.226	18.0015
-38.5423	435.248	18.0698
-38.538	438.952	18.1382
-38.5308	441.267	18.2065
-38.5256	440.916	18.2749
-38.5195	443.06	18.3433
-38.5141	444.363	18.4116
-38.5081	439.944	18.47998
-38.50391	434.078	18.54834
-38.4976	437.289	18.6167
-38.4908	437.531	18.6851
-38.485	435.15	18.7534
-38.4803	434.759	18.8218
-38.4751	437.235	18.8901
-38.4684	438.582	18.9585
-38.463	441.733	19.0269
-38.4583	441.876	19.0952
-38.4515	441.879	19.1636
[...]
-37.8133	430.91	26.8198
-37.8081	429.413	26.8784
-37.804	431.3551	26.937
-37.7985	429.713	26.9956
-37.7932	433.182	27.0542
-37.7894	430.873	27.1128
-37.784	436.213	27.1714
-37.7802	433.318	27.22998
-37.775	437.677	27.2886
-37.771	433.086	27.3472
-37.7646	439.576	27.4058
-37.76	433.987	27.4644
-37.7552	433.768	27.5229
-37.7497	433.759	27.5815
-37.7457	433.147	27.6401
-37.7399	430.819	27.69873
-37.7353	431.212	27.7573
-37.7302	433.25	27.8159
-37.7261	430.612	27.8745
-37.72094	432.456	27.9331
-37.7156	433.733	27.9917
-37.7112	434.023	28.0503
-37.7066	434.556	28.1089
-37.7014	437.295	28.16748
-37.69585	438.479	28.2261
-37.6911	436.036	28.2847
-37.6868	438.926	28.3433
-37.68317	436.533	28.4019
-37.6764	436.799	28.4604
-37.6727	434.161	28.519
-37.6682	432.243	28.5776
-37.6618	429.818	28.63623
-37.6581	430.949	28.6948
-37.6527	429.657	28.7534
-37.6483	427.903	28.812
-37.643	431.738	28.8706
-37.6383	430.074	28.9292
-37.634	433.375	28.9878
-37.6288	431.195	29.0464
-37.6224	436.701	29.10498
-37.6192	430.857	29.1636
-37.6141	436.3251	29.2222
-37.6095	435.397	29.2808
-37.60355	432.998	29.3394
-37.5993	432.911	29.3979
-37.5936	433.191	29.4565
-37.5883	429.287	29.5151
-37.5849	430.293	29.57373
-37.5798	430.36	29.6323
-37.5746	428.234	29.6909
-37.5697	427.659	29.7495
-37.5649	429.537	29.8081
-37.5594	429.868	29.8667
-37.55574	431.284	29.9253
-37.5502	432.6037	29.9839
-37.5458	434.695	30.04248
-37.5404	433.3378	30.1011
-37.5356	436.68	30.1597
-37.5299	435.775	30.2183
-37.5254	434.617	30.2769
-37.5218	432.283	30.3354
-37.5153	433.396	30.394
-37.5115	429.849	30.4526
-37.5069	428.997	30.51123
-37.501	428.0423	30.5698
-37.4973	425.777	30.6284
-37.4909	428.149	30.687
-37.4862	426.628	30.7456
-37.481	429.046	30.8042
-37.4764	427.142	30.8628
-37.471	432.9715	30.9214
-37.4676	430.186	30.97998
-37.4605	433.211	31.0386
-37.4574	430.934	31.0972
-37.45179	432.732	31.1558
-37.4473	430.313	31.2144
-37.4429	432.61	31.2729
-37.4379	430.207	31.3315
-37.4329	428.75	31.3901
-37.4283	429.356	31.44873
-37.4231	426.249	31.5073
-37.4188	425.662	31.5659
-37.4134	426.9523	31.6245
-37.4089	426.163	31.6831
-37.4041	425.835	31.7417
-37.398	428.003	31.8003
-37.3932	430.73	31.8589
-37.3886	429.195	31.91748
-37.3831	431.968	31.9761
-37.378	430.428	32.0347
-37.37405	431.385	32.0933
-37.3692	427.717	32.1519
-37.3637	429.677	32.2104
-37.3601	426.958	32.269
-37.3543	423.101	32.3276
-37.3493	423.619	32.38623
-37.3436	419.879	32.4448
-37.3402	420.45	32.5034
-37.33419	418.614	32.562
-37.3305	421.09	32.6206
-37.3247	417.183	32.6792
-37.3197	423.989	32.7378
-37.3155	417.049	32.7964
-37.309	-51.2767	32.85498
-37.3047	-40.0944	32.9136
-37.301	-39.3989	32.9722
-37.29694	-40.5876	33.0308
-37.2909	-39.7884	33.0894
-37.2861	-39.2781	33.1479
-37.2813	-41.385	33.2065
-37.2769	-41.5083	33.2651
-37.2715	-43.5801	33.32373
-37.26775	-45.7665	33.3823
-37.2621	-44.0918	33.4409
-37.2558	-43.4125	33.4995
-37.2524	-43.8209	33.5581
-37.2474	-42.9222	33.6167
-37.2428	-38.9997	33.6753
-37.2373	-41.67186	33.7339
-37.233	-37.5053	33.79248
-37.2286	-38.8664	33.8511
-37.2232	-36.58289	33.9097
-37.2175	-39.7558	33.9683
-37.213	-37.6693	34.0269
-37.2075	-42.3075	34.0854
-37.2032	-42.4261	34.144
-37.198	-41.701	34.2026
-37.194	-47.0362	34.26123
-37.1883	-46.6035	34.3198
-37.183	-47.464	34.3784
-37.1796	-43.6042	34.437
-37.1743	-47.4481	34.4956
-37.169	-43.1014	34.5542
-37.1636	-44.338	34.6128
-37.159	-41.1027	34.6714
-37.1545	-42.0203	34.72998
-37.1497	-38.8136	34.7886
-37.1452	-41.675	34.8472
-37.1398	-39.7744	34.9058
-37.1346	-38.7457	34.9644
-37.1302	-40.8374	35.0229
-37.1255	-42.35519	35.0815
-37.1216	-42.2888	35.1401
-37.1157	-41.9198	35.19873
-37.1127	-41.6636	35.228

File: 0.254_solid_uprint_typeiv_090_r(5).dat
MTS793|BTW|ENU|1|2|.|/|:|1|0|0|A

Data Header:			0.254_solid_uprint_typeiv_090_r0			Time:	20.0176	s	4/14/2019 1:09:21 AM
Data Acquisition:	Timed
Station Name:	ft40.cfg
Test File Name:	monotonic_0.2540_typeiv_solid_090_uprint.tst
Displacement	Force	Running Time
mm	N	s
-40.0406	-177.754	0.0227051
-40.0403	-177.121	0.0910645
-40.0352	-170.584	0.159424
-40.0289	-167.301	0.2277832
-40.0231	-164.016	0.296143
-40.0182	-158.234	0.364502
-40.0124	-154.828	0.432861
-40.007	-153.078	0.5012207
-40.0011	-150.11	0.56958
-39.9958	-148.042	0.637939
-39.9897	-149.7	0.706299
-39.9824	-145.044	0.7746582
-39.9781	-136.398	0.843018
-39.9726	-135.808	0.911377
-39.9669	-129.69	0.979736
-39.9619	-123.151	1.0481
-39.9554	-120.4615	1.11646
-39.9499	-118.613	1.18481
-39.9431	-115.152	1.25317
-39.9377	-113.108	1.32153
-39.9323	-116.0426	1.38989
-39.92712	-110.373	1.458252
-39.9216	-104.642	1.52661
-39.9149	-102.426	1.59497
-39.91	-97.3581	1.66333
-39.9043	-91.0122	1.73169
-39.8991	-88.0912	1.80005
-39.8924	-82.2421	1.86841
-39.888	-78.31678	1.93677
-39.8814	-78.6878	2.005127
-39.87627	-80.1391	2.07349
-39.8689	-74.8886	2.14185
-39.864	-71.2323	2.21021
-39.8586	-70.6981	2.27856
-39.8527	-65.0421	2.34692
-39.8469	-58.39122	2.41528
-39.8418	-52.52697	2.48364
-39.8368	-49.272	2.552002
-39.8308	-44.8352	2.62036
-39.8244	-45.5003	2.68872
-39.8187	-44.1452	2.75708
-39.8133	-39.0891	2.82544
-39.8077	-37.8018	2.8938
-39.8024	-37.1202	2.96216
-39.7965	-31.8879	3.03052
-39.79076	-28.4636	3.098877
-39.7849	-20.6082	3.16724
-39.77874	-16.3907	3.2356
-39.773	-12.0964	3.30396
-39.7676	-12.9424	3.37231
-39.7617	-9.69984	3.44067
-39.756	-5.20346	3.50903
-39.75005	-5.86789	3.57739
-39.7455	-4.04314	3.645752
-39.7394	3.64566	3.71411
-39.7341	4.87099	3.78247
-39.727	12.5949	3.85083
-39.7222	18.0075	3.91919
-39.7166	20.3424	3.98755
-39.71069	25.1226	4.05591
-39.70631	28.4483	4.12427
-39.6992	29.0022	4.192627
-39.6936	28.7109	4.26099
-39.6875	32.8465	4.32935
-39.6822	33.5999	4.39771
-39.6765	39.3879	4.46606
-39.6711	47.9553	4.53442
-39.6641	51.69416	4.60278
-39.6595	54.09269	4.67114
-39.6543	58.9901	4.739502
-39.6495	64.1014	4.80786
-39.6426	62.9617	4.87622
-39.6368	61.6876	4.94458
-39.6296	66.2749	5.01294
-39.6259	67.1164	5.0813
-39.6202	73.7912	5.14966
-39.6146	78.3982	5.21802
-39.6085	82.51635	5.286377
-39.6033	83.6885	5.35474
-39.5968	90.0335	5.4231
-39.5911	96.0909	5.49146
-39.5851	96.2909	5.55981
-39.579	98.6479	5.62817
-39.5743	100.615	5.69653
-39.5687	101.829	5.76489
-39.5633	105.925	5.833252
-39.5573	112.9	5.90161
-39.5519	113.4474	5.96997
-39.546	113.836	6.03833
-39.5393	122.413	6.10669
-39.5341	130.447	6.17505
-39.5285	129.787	6.24341
-39.5226	133.115	6.31177
-39.5162	135.177	6.380127
-39.5117	134.302	6.44849
-39.5052	139.0442	6.51685
-39.5015	143.055	6.58521
-39.4943	144.571	6.65356
-39.48999	146.906	6.72192
-39.4832	157.113	6.79028
-39.4776	160.318	6.85864
-39.47271	161.852	6.927002
-39.466	166.351	6.99536
-39.4604	168.762	7.06372
-39.4546	167.73	7.13208
-39.4496	172.064	7.20044
-39.4433	175.528	7.2688
-39.4368	175.5025	7.33716
-39.4301	177.117	7.40552
-39.4255	186.834	7.473877
-39.4202	190.377	7.54224
-39.4147	192.761	7.6106
-39.41	198.012	7.67896
-39.404	201.091	7.74731
-39.3984	203.038	7.81567
-39.392	205.131	7.88403
-39.38689	205.958	7.95239
-39.3816	204.51	8.020752
-39.3752	209.344	8.08911
-39.3699	217.154	8.15747
-39.3637	220.631	8.22583
-39.3574	224.137	8.29419
-39.352	231.258	8.36255
-39.3466	233.081	8.43091
-39.3397	233.489	8.49927
-39.3353	238.083	8.567627
-39.3294	237.369	8.63599
-39.3234	235.862	8.70435
-39.3179	238.819	8.77271
-39.3124	247.247	8.84106
-39.3056	250.649	8.90942
-39.3016	253.528	8.97778
-39.2952	259.489	9.04614
-39.2885	262.534	9.114502
-39.2844	266.587	9.18286
-39.2782	267.796	9.25122
-39.2728	269.066	9.31958
-39.2658	267.641	9.38794
-39.261	270.46	9.4563
-39.25494	276.108	9.52466
-39.2498	278.53	9.59302
-39.2436	283.405	9.661377
-39.2386	287.093	9.72974
-39.2318	291.328	9.7981
-39.2279	298.021	9.86646
-39.2213	299.827	9.93481
-39.2147	298.077	10.0032
-39.2109	298.094	10.0715
-39.2036	301.786	10.1399
-39.1983	304.655	10.2083
-39.1936	306.266	10.2766
-39.1866	308.943	10.345
-39.1816	313.869	10.41333
-39.176	320.442	10.4817
-39.1706	324.433	10.55
-39.1642	328.296	10.6184
-39.1592	328.126	10.6868
-39.1518	327.296	10.7551
-39.1464	329.7131	10.8235
-39.1405	330.132	10.8918
-39.1362	332.718	10.9602
-39.1295	338.583	11.0286
-39.1239	339.296	11.0969
-39.11974	345.571	11.1653
-39.1133	353.151	11.2336
-39.1071	353.712	11.302
-39.1003	354.097	11.3704
-39.0952	357.48	11.4387
-39.0915	360.936	11.50708
-39.0846	357.6098	11.5754
-39.0786	359.778	11.6438
-39.0733	362.015	11.7122
-39.0675	362.917	11.7805
-39.06163	370.63	11.8489
-39.0565	375.194	11.9172
-39.0502	380.295	11.9856
-39.0462	377.387	12.054
-39.0387	382.138	12.1223
-39.034	385.337	12.1907
-39.0272	381.797	12.259
-39.0228	382.996	12.3274
-39.0163	385.719	12.3958
-39.00988	386.445	12.4641
-39.0049	390.748	12.5325
-38.9998	398.236	12.60083
-38.9932	399.299	12.6692
-38.9871	400.106	12.7375
-38.9822	403.381	12.8059
-38.9771	406.634	12.8743
-38.9708	404.27	12.9426
-38.9644	404.135	13.011
-38.9578	406.424	13.0793
-38.95253	406.398	13.1477
-38.9489	410.11	13.2161
-38.9418	415.155	13.2844
-38.9353	417.672	13.3528
-38.9304	415.604	13.4211
-38.9251	423.6839	13.4895
-38.9199	423.8	13.5579
-38.9145	422.495	13.6262
-38.9071	422.206	13.69458
-38.9021	423.457	13.7629
-38.8966	422.905	13.8313
-38.8906	424.456	13.8997
-38.886	426.836	13.968
-38.8798	427.767	14.0364
-38.8742	427.975	14.1047
-38.86869	433.753	14.1731
-38.8629	435.398	14.2415
-38.856	432.378	14.3098
-38.8504	431.917	14.3782
-38.8448	432.124	14.4465
-38.8396	431.589	14.5149
-38.8346	432.616	14.5833
-38.82798	431.518	14.6516
-38.8227	432.814	14.72
-38.8161	434.281	14.78833
-38.8106	437.838	14.8567
-38.8048	440.962	14.925
-38.8	439.8851	14.9934
-38.7941	436.962	15.0618
-38.7891	436.57	15.1301
-38.7819	436.535	15.1985
-38.7766	436.3631	15.2668
-38.7701	435.6857	15.3352
-38.766	434.047	15.4036
-38.7596	434.989	15.4719
-38.7551	439.074	15.5403
-38.74844	440.8703	15.6086
-38.7424	441.353	15.677
-38.7376	440.205	15.7454
-38.7325	436.609	15.8137
-38.7249	438.8775	15.88208
-38.7198	436.995	15.9504
-38.71381	433.544	16.0188
-38.7069	431.652	16.0872
-38.70269	433.08	16.1555
-38.6973	434.42	16.2239
-38.692	437.183	16.2922
-38.6854	439.158	16.3606
-38.6802	436.321	16.429
-38.6748	433.788	16.4973
-38.6694	437.053	16.5657
-38.6625	434.897	16.634
-38.6576	430.193	16.7024
-38.65221	427.188	16.7708
-38.6457	429.944	16.8391
-38.639	431.936	16.9075
-38.6353	431.658	16.97583
-38.6289	433.7775	17.0442
-38.6228	435.196	17.1125
-38.6183	433.367	17.1809
-38.6105	434.992	17.2493
-38.6064	432	17.3176
-38.6013	428.066	17.386
-38.595	424.273	17.4543
-38.5886	427.202	17.5227
-38.5832	426.405	17.5911
-38.577	424.078	17.6594
-38.5715	428.611	17.7278
-38.566	429.727	17.7961
-38.5606	431.418	17.8645
-38.5539	432.042	17.9329
-38.5492	431.747	18.0012
-38.5432	424.717	18.06958
-38.5372	420.611	18.1379
-38.5311	424.168	18.2063
-38.5251	423.396	18.2747
-38.52029	423.034	18.343
-38.51516	422.84	18.4114
-38.5095	427.883	18.4797
-38.5019	427.164	18.5481
-38.4987	429.136	18.6165
-38.4923	429.696	18.6848
-38.4865	423.99	18.7532
-38.4809	419.069	18.8215
-38.4747	423.038	18.8899
-38.4683	421.525	18.9583
-38.4632	418.0199	19.0266
-38.4591	420.892	19.095
[...]
-38.306	416.08	20.9211
-38.3045	419.222	20.9407
-38.3031	413.2468	20.9602
-38.3002	418.375	20.9797
-38.2991	418.379	20.9993
-38.298	411.579	21.0188
-38.2953	413.462	21.03833
-38.2935	419.506	21.0579
-38.2933	411.517	21.0774
-38.2903	411.233	21.0969
-38.2892	419.833	21.1165
-38.2877	413.697	21.136
-38.2869	412.585	21.1555
-38.28437	418.328	21.175
-38.2828	412.693	21.19458
-38.2815	406.7	21.2141
-38.2792	417.118	21.2336
-38.278	412.5546	21.2532
-38.2768	406.3316	21.2727
-38.2753	411.707	21.2922
-38.27351	413.454	21.3118
-38.2713	405.932	21.3313
-38.2696	408.437	21.35083
-38.2679	406.51	21.3704
-38.2671	401.056	21.3899
-38.2649	398.165	21.4094
-38.2611	-83.8032	21.429
-38.2589	-32.46616	21.4485
-38.2576	-40.3459	21.468
-38.2589	-39.3065	21.4875
-38.255	-39.0131	21.50708
-38.2544	-46.6875	21.5266
-38.2531	-38.8124	21.5461
-38.2509	-40.38755	21.5657
-38.2494	-43.2828	21.5852
-38.2482	-41.9208	21.6047
-38.2475	-39.6103	21.6243
-38.2447	-46.4235	21.6438
-38.2434	-43.0706	21.66333
-38.24194	-36.7241	21.6829
-38.24081	-45.5137	21.7024
-38.2389	-45.7271	21.7219
-38.2356	-38.0128	21.7415
-38.2356	-43.8887	21.761
-38.2339	-46.9025	21.7805
-38.23167	-38.5916	21.8
-38.2306	-43.0024	21.81958
-38.2284	-46.7266	21.8391
-38.2271	-39.1077	21.8586
-38.22525	-41.7798	21.8782
-38.2239	-46.6352	21.8977
-38.2224	-38.0527	21.9172
-38.22	-41.334	21.9368
-38.2188	-44.908	21.9563
-38.2178	-43.7911	21.97583
-38.2152	-39.7946	21.9954
-38.2149	-44.2184	22.0149
-38.2127	-41.3173	22.0344
-38.211	-42.4328	22.054
-38.2089	-42.2207	22.0735
-38.2076	-45.436	22.093
-38.2057	-39.161	22.1125
-38.2047	-43.3314	22.13208
-38.2025	-45.5763	22.1516
-38.2015	-41.8514	22.1711
-38.1998	-40.145	22.1907
-38.1975	-48.4818	22.2102
-38.1971	-42.6183	22.2297
-38.19508	-39.1161	22.2493
-38.1936	-43.8551	22.2688
-38.1916	-45.0454	22.28833
-38.191	-39.04	22.3079
-38.1888	-46.38932	22.3274
-38.1873	-44.392	22.3469
-38.1852	-38.1821	22.3665
-38.1837	-44.3308	22.386
-38.1824	-47.7287	22.4055
-38.18	-39.0645	22.425
-38.1781	-42.4433	22.44458
-38.1766	-47.82375	22.4641
-38.17514	-39.2345	22.4836
-38.1738	-42.2877	22.5032
-38.1719	-45.4653	22.5227
-38.1704	-42.3612	22.5422
-38.1684	-40.91486	22.5618
-38.1681	-47.2233	22.5813
-38.1651	-41.3871	22.60083
-38.16325	-40.1339	22.6204
-38.1617	-44.2286	22.6399
-38.1607	-45.3153	22.6594
-38.1603	-38.3657	22.679
-38.1567	-44.0535	22.6985
-38.155	-43.4167	22.718
-38.1548	-42.8057	22.7375
-38.1535	-41.065	22.75708
-38.1515	-46.5066	22.7766
-38.1486	-39.6381	22.7961
-38.1471	-40.3693	22.8157
-38.1457	-44.8074	22.8352
-38.144	-43.8742	22.8547
-38.1429	-38.9721	22.8743
-38.1413	-47.1814	22.8938
-38.13932	-43.2644	22.91333
-38.1375	-40.5493	22.9329
-38.1362	-44.7705	22.9524
-38.1342	-44.4356	22.9719
-38.1336	-39.5636	22.9915
-38.1316	-46.0481	23.011
-38.12991	-45.8128	23.0305
-38.12775	-37.5232	23.05
-38.126	-43.3872	23.06958
-38.1251	-48.042	23.0891
-38.1231	-40.9515	23.1086
-38.1225	-39.8448	23.1282
-38.1212	-45.7306	23.1477
-38.1178	-39.0128	23.1672
-38.1171	-41.5563	23.1868
-38.1138	-45.4954	23.2063
-38.1131	-43.967	23.22583
-38.1121	-38.6327	23.2454
-38.1105	-45.8639	23.2649
-38.1088	-42.0817	23.2844
-38.1073	-39.6706	23.304
-38.1049	-42.40757	23.3235
-38.1036	-45.34589	23.343
-38.1017	-40.0164	23.3625
-38.1011	-41.3826	23.38208
-38.0993	-43.9554	23.4016
-38.0976	-44.324	23.4211
-38.095	-40.458	23.4407
-38.0943	-46.8802	23.4602
-38.0916	-40.567	23.4797
-38.091	-39.5985	23.4993
-38.09	-46.1242	23.5188
-38.0864	-45.7119	23.53833
-38.08569	-39.0558	23.5579
-38.0845	-45.899	23.5774
-38.0823	-45.218	23.5969
-38.0803	-39.73204	23.6165
-38.0796	-43.7462	23.636
-38.0786	-46.0606	23.6555
-38.076	-38.08321	23.675