Folder: Stress_Strain_Analysis_Tools/data/processed_data_files/tensile (part 33)

File: 0.254_solid_dimension_typei_4545_r(2).dat
MTS793|BTW|ENU|1|2|.|/|:|1|0|0|A

Data Header:			0.254_solid_dimension_typei_4545_r0			Time:	20.0181	s	4/14/2019 4:45:08 AM
Data Acquisition:	Timed
Station Name:	ft40.cfg
Test File Name:	monotonic_0.2540_typei_solid_4545_dimension.tst
Displacement	Force	Running Time
mm	N	s
9.95782	-134.678	0.0234375
9.96052	-136.821	0.0917969
9.96642	-135.191	0.160156
9.97145	-133.004	0.228516
9.977129	-131.999	0.296875
9.98314	-125.682	0.365234
9.98931	-117.648	0.433594
9.995019	-110.837	0.501953
9.99948	-106.2	0.5703125
10.0056	-100.471	0.638672
10.0114	-96.7421	0.707031
10.0169	-98.0153	0.775391
10.0233	-98.4818	0.84375
10.0297	-98.1927	0.912109
10.034	-99.3119	0.980469
10.0397	-92.9042	1.04883
10.0454	-86.8136	1.11719
10.0514	-79.8721	1.18555
10.0572	-74.4806	1.25391
10.0641	-64.3904	1.32227
10.0687	-60.5066	1.390625
10.0745	-61.0913	1.45898
10.0799	-61.5558	1.52734
10.0875	-62.1902	1.5957
10.092	-62.6135	1.66406
10.0979	-57.7102	1.73242
10.1031	-52.1991	1.80078
10.1082	-47.69978	1.86914
10.1133	-41.6564	1.9375
10.1198	-31.0407	2.00586
10.1255	-25.6838	2.07422
10.1314	-23.4337	2.14258
10.1371	-20.6842	2.21094
10.142	-22.3133	2.2793
10.1476	-24.2397	2.34766
10.1537	-21.1366	2.41602
10.1601	-16.2655	2.484375
10.1659	-13.5298	2.55273
10.1703	-6.56225	2.62109
10.176	5.33525	2.68945
10.1827	10.9142	2.75781
10.1875	14.0883	2.82617
10.1935	18.86232	2.89453
10.1991	19.2948	2.96289
10.2055	15.8084	3.03125
10.2107	17.3511	3.09961
10.2169	23.1422	3.16797
10.22254	21.4137	3.23633
10.2277	26.14282	3.30469
10.2335	39.3337	3.37305
10.2401	49.5242	3.44141
10.2457	51.1861	3.50977
10.2509	56.7235	3.578125
10.2557	62.3234	3.64648
10.2608	58.1819	3.71484
10.26722	58.026	3.7832
10.2732	62.3335	3.85156
10.27874	61.7715	3.91992
10.2842	62.5397	3.98828
10.292	74.7508	4.05664
10.2959	85.1054	4.125
10.302	91.0455	4.19336
10.308	95.976	4.26172
10.3135	102.0657	4.33008
10.3195	101.694	4.39844
10.3253	101.3092	4.4668
10.3301	101.745	4.53516
10.3365	100.744	4.60352
10.3416	100.783	4.671875
10.3473	109.5531	4.74023
10.3539	119.751	4.80859
10.3594	124.045	4.87695
10.3647	133.56	4.94531
10.3716	140.81	5.01367
10.3761	143.176	5.08203
10.3814	143.7133	5.15039
10.3882	142.785	5.21875
10.3941	141.728	5.28711
10.3996	141.276	5.35547
10.4045	146.41	5.42383
10.4108	154.187	5.49219
10.4159	162.548	5.56055
10.4221	172.2886	5.62891
10.4282	178.196	5.69727
10.4328	181.3007	5.765625
10.4391	184.803	5.83398
10.4446	186.173	5.90234
10.4502	182.566	5.9707
10.4554	181.329	6.03906
10.4618	184.07	6.10742
10.4668	190.842	6.17578
10.47257	197.706	6.24414
10.47776	205.8	6.3125
10.4852	213.388	6.38086
10.4904	220.348	6.44922
10.496	226.373	6.51758
10.5018	227.195	6.58594
10.5071	223.534	6.6543
10.5116	223.2	6.72266
10.5187	225.278	6.79102
10.5242	226.552	6.859375
10.5297	232.3333	6.92773
10.535	240.429	6.99609
10.5412	249.592	7.06445
10.5462	257.774	7.13281
10.5524	265.231	7.20117
10.5578	269.493	7.26953
10.5644	266.577	7.33789
10.5689	264.1077	7.40625
10.5747	264.944	7.47461
10.5812	267.624	7.54297
10.5867	267.457	7.61133
10.5924	276.102	7.67969
10.597	285.971	7.74805
10.6045	293.061	7.81641
10.6105	301.26	7.88477
10.6153	308.363	7.953125
10.6205	307.34	8.02148
10.6267	303.8761	8.08984
10.6325	307.175	8.1582
10.6371	307.962	8.22656
10.6441	305.432	8.29492
10.6495	311.116	8.36328
10.6549	321.887	8.43164
10.66021	326.54	8.5
10.6668	336.962	8.56836
10.6716	346.135	8.63672
10.6772	349.632	8.70508
10.6836	347.098	8.77344
10.6887	349.698	8.8418
10.6941	348.5921	8.91016
10.7012	344.847	8.97852
10.7057	347.0029	9.046875
10.7131	353.917	9.11523
10.7175	359.63	9.18359
10.72239	368.537	9.25195
10.7288	380.609	9.32031
10.7351	386.353	9.38867
10.7402	388.113	9.45703
10.7459	391.739	9.52539
10.7519	391.952	9.59375
10.7576	386.68	9.66211
10.7629	386.722	9.73047
10.7695	387.738	9.79883
10.7739	393.374	9.86719
10.7806	403.733	9.93555
10.786	413.006	10.0039
10.7922	421.037	10.0723
10.79727	427.767	10.1406
10.8029	430.959	10.209
10.8097	433.49	10.2773
10.8151	428.214	10.3457
10.8212	424.784	10.4141
10.8263	427.493	10.4824
10.8322	428.168	10.5508
10.8374	437.81	10.6191
10.84267	445.301	10.6875
10.8481	453.648	10.7559
10.8539	461.832	10.8242
10.8605	468.919	10.8926
10.8658	472.38	10.9609
10.8714	470.408	11.0293
10.8771	466.014	11.0977
10.8823	465.281	11.166
10.8889	463.564	11.2344
10.894	469.802	11.3027
10.9001	477.123	11.3711
10.9056	484.002	11.4395
10.91127	492.262	11.5078
10.91607	502.577	11.5762
10.9228	509.175	11.6445
10.9288	509.743	11.7129
10.9342	508.425	11.78125
10.9389	505.565	11.8496
10.9445	500.076	11.918
10.9501	504.942	11.9863
10.9571	509.656	12.0547
10.9615	515.549	12.123
10.96916	523.492	12.1914
10.9731	537.182	12.2598
10.9798	543.304	12.3281
10.9847	545.596	12.3965
10.991	547.585	12.4648
10.9958	545.071	12.5332
11.0022	540.061	12.6016
11.008	541.041	12.6699
11.0129	545.381	12.7383
11.02	546.283	12.8066
11.0254	554.909	12.875
11.0304	568.422	12.9434
11.0364	578.885	13.0117
11.0421	580.775	13.0801
11.0482	584.3324	13.1484
11.052	583.98	13.2168
11.0596	579.179	13.2852
11.0646	577.128	13.3535
11.0712	578.967	13.4219
11.0769	580.9458	13.4902
11.0831	586.333	13.5586
11.0882	596.989	13.627
11.0939	609.286	13.6953
11.0991	615.3252	13.7637
11.1048	620.742	13.832
11.1111	621.597	13.9004
11.1156	618.409	13.96875
11.1215	615.827	14.0371
11.12761	615.356	14.1055
11.1336	612.776	14.1738
11.1378	614.834	14.2422
11.1447	624.925	14.3105
11.1501	636.926	14.3789
11.1556	644.427	14.4473
11.1619	651.9325	14.5156
11.168	657.498	14.584
11.1729	655.572	14.6523
11.1797	653.602	14.7207
11.184	650.271	14.7891
11.1904	648.607	14.8574
11.1954	647.7428	14.9258
11.2012	654.975	14.9941
11.2077	667.299	15.0625
11.21184	674.474	15.1309
11.219	684.082	15.1992
11.225	689.939	15.2676
11.2302	690.939	15.3359
11.2364	691.508	15.4043
11.2414	687.8736	15.4727
11.2466	682.451	15.541
11.253	679.719	15.6094
11.2587	685.064	15.6777
11.26438	694.778	15.7461
11.2693	702.458	15.8145
11.27552	712.899	15.8828
11.2806	721.935	15.9512
11.2871	723.73	16.0195
11.2925	728.348	16.0879
11.2989	724.7771	16.15625
11.3049	718.451	16.2246
11.3096	714.298	16.293
11.3155	717.14	16.3613
11.3216	722.193	16.4297
11.3272	727.9809	16.498
11.3328	739.231	16.5664
11.33794	749.198	16.6348
11.3434	754.32	16.7031
11.3493	760.344	16.7715
11.3558	760.0014	16.8398
11.3612	754.622	16.9082
11.3673	748.442	16.9766
11.3725	751.314	17.0449
11.3787	754.152	17.1133
11.3833	755.885	17.1816
11.38994	766.079	17.25
11.3949	775.746	17.3184
11.4012	782.003	17.3867
11.4056	788.969	17.4551
11.4123	792.825	17.5234
11.418	788.526	17.5918
11.4234	782.383	17.6602
11.4294	782.457	17.7285
11.4353	782.512	17.7969
11.4406	784.424	17.8652
11.4458	791.464	17.9336
11.452	801.486	18.002
11.4575	808.929	18.0703
11.4643	818.8	18.1387
11.4689	822.833	18.207
11.4752	821.177	18.2754
11.4808	814.956	18.34375
11.4862	812.59	18.4121
11.4912	814.049	18.4805
11.49712	811.799	18.5488
11.5033	817.299	18.6172
11.5093	825.019	18.6855
11.5145	833.663	18.7539
11.5207	843.19	18.8223
11.5271	849.456	18.8906
11.5318	850.704	18.959
11.5372	846.977	19.0273
11.5426	845.643	19.0957
11.5489	844.254	19.1641
11.5552	840.224	19.2324
11.5606	842.54	19.3008
11.5651	850.045	19.3691
11.5718	857.337	19.4375
11.5773	868.013	19.5059
11.5826	875.424	19.5742
11.5889	878.288	19.6426
11.5958	877.423	19.7109
11.6	875.868	19.7793
11.6059	874.8	19.8477
11.6105	870.595	19.916
11.6181	869.63	19.9844
[...]
13.8923	1069.9	47.2988
13.897	1073.69	47.3477
13.9007	1084.67	47.3965
13.9045	1084.31	47.4453
13.90933	1076.16	47.4941
13.912	1069.22	47.543
13.9177	1079.21	47.5918
13.9214	1087.54	47.6406
13.92522	1082.02	47.6895
13.9286	1071.05	47.7383
13.9331	1071.31	47.7871
13.9371	1082.2	47.8359
13.9412	1085.03	47.8848
13.9456	1076	47.9336
13.949	1070.62	47.9824
13.9541	1078.26	48.03125
13.9572	1085.61	48.0801
13.961	1082.52	48.1289
13.9654	1072.61	48.1777
13.9697	1072.04	48.2266
13.9744	1082.61	48.2754
13.978	1087.54	48.3242
13.9827	1077.8	48.373
13.9869	1070.06	48.4219
13.991	1073.22	48.4707
13.99394	1084.15	48.5195
13.9992	1083.96	48.5684
14.0025	1075.03	48.6172
14.0058	1073.047	48.666
14.0102	1080.89	48.7148
14.0151	1087.506	48.7637
14.0182	1079.45	48.8125
14.0223	1069.21	48.8613
14.0258	1072.8	48.9102
14.0308	1083.66	48.959
14.0349	1082.92	49.0078
14.0399	1073.29	49.0566
14.0422	1068.71	49.1055
14.0474	1076.8	49.1543
14.0517	1084.85	49.2031
14.0554	1078.72	49.252
14.0594	1070.45	49.3008
14.0626	1073.7	49.3496
14.0674	1085.14	49.3984
14.0715	1085.53	49.4473
14.0754	1072.97	49.4961
14.08	1069.28	49.5449
14.0841	1076.58	49.59375
14.0875	1083.68	49.6426
14.0922	1080.26	49.6914
14.0961	1070.49	49.7402
14.0995	1069.39	49.7891
14.10467	1080.07	49.8379
14.1086	1082.68	49.8867
14.1127	1074.48	49.9355
14.1159	1069.89	49.9844
14.1205	1076.23	50.0332
14.12429	1086.06	50.082
14.1285	1082.87	50.1309
14.1315	1069.96	50.1797
14.1375	1069.58	50.2285
14.1398	1078.72	50.2773
14.145	1083.32	50.3262
14.148	1075.14	50.375
14.1525	1067.46	50.4238
14.157	1073.33	50.4727
14.1609	1079.9	50.5215
14.1646	1079.72	50.5703
14.1687	1068.04	50.6191
14.1724	1066.71	50.668
14.1773	1078.45	50.7168
14.1816	1085.43	50.7656
14.1858	1079.097	50.8145
14.1885	1067.47	50.8633
14.1925	1072.1	50.9121
14.1979	1081.87	50.9609
14.2016	1081.59	51.0098
14.2056	1070.416	51.0586
14.2096	1066.39	51.1074
14.2141	1073.813	51.15625
14.2173	1080.98	51.2051
14.221	1075.67	51.2539
14.2254	1066.44	51.3027
14.2305	1069.15	51.3516
14.2342	1080.83	51.4004
14.2391	1083.6	51.4492
14.24184	1077.19	51.498
14.2465	1065.66	51.5469
14.2516	1073.24	51.5957
14.2547	1084.299	51.6445
14.25928	1079.48	51.6934
14.2633	1067.67	51.7422
14.2668	1068.48	51.791
14.2706	1078.66	51.8398
14.2744	1081.43	51.8887
14.2784	1072.76	51.9375
14.2822	1061.29	51.9863
14.288	1068.73	52.0352
14.2909	1079.75	52.084
14.296	1080.3	52.1328
14.29956	1069.32	52.1816
14.3037	1063.29	52.2305
14.308	1073.9	52.2793
14.3124	1082.6	52.3281
14.3163	1075.86	52.377
14.3198	1063.85	52.4258
14.32384	1067.61	52.4746
14.328	1078.38	52.5234
14.3318	1078.06	52.5723
14.3357	1065.06	52.6211
14.3379	1058.34	52.6699
14.3437	1066.18	52.71875
14.34922	897.646	52.7676
14.3562	-37.2606	52.8164
14.3589	-48.7463	52.8652
14.3621	-47.8122	52.9141
14.365	-32.2268	52.9629
14.3702	-29.52165	53.0117
14.3736	-43.19569	53.0605
14.3779	-51.7026	53.1094
14.38209	-38.5114	53.1582
14.3861	-27.9995	53.207
14.3889	-34.8349	53.2559
14.3939	-48.5358	53.3047
14.3976	-48.4877	53.3535
14.402	-35.2166	53.4023
14.4054	-29.9962	53.4512
14.4099	-39.3261	53.5
14.4145	-49.37199	53.5488
14.4189	-44.4567	53.5977
14.4233	-33.7105	53.6465
14.42598	-32.2513	53.6953
14.4304	-43.84285	53.7441
14.4342	-48.8732	53.793
14.4372	-37.6663	53.8418
14.442	-29.9574	53.8906
14.44554	-36.7422	53.9395
14.45063	-49.72805	53.9883
14.4537	-47.0575	54.0371
14.4585	-33.9531	54.0859
14.4626	-32.7965	54.1348
14.4666	-42.4088	54.1836
14.4711	-48.7681	54.2324
14.4752	-43.0389	54.28125
14.479	-32.1583	54.3301
14.4831	-36.59127	54.3789
14.4873	-48.8519	54.4277
14.4911	-48.3191	54.4766
14.4948	-35.3942	54.5254
14.4991	-30.6446	54.5742
14.5028	-41.9417	54.623
14.5038	-35.22477	54.6328

File: 0.254_solid_dimension_typei_4545_r(3).dat
MTS793|BTW|ENU|1|2|.|/|:|1|0|0|A

Data Header:			0.254_solid_dimension_typei_4545_r0			Time:	20.0193	s	4/14/2019 4:49:37 AM
Data Acquisition:	Timed
Station Name:	ft40.cfg
Test File Name:	monotonic_0.2540_typei_solid_4545_dimension.tst
Displacement	Force	Running Time
mm	N	s
9.95668	-146.479	0.0224609
9.95758	-139.393	0.0908203
9.96418	-133.3367	0.15918
9.96895	-126.062	0.227539
9.97569	-117.912	0.295898
9.9814	-111.354	0.364258
9.98777	-111.138	0.432617
9.99188	-111.7571	0.500977
9.99806	-107.359	0.569336
10.0041	-111.064	0.637695
10.0092	-112.485	0.706055
10.0154	-108.2418	0.774414
10.0198	-103.164	0.842773
10.026	-95.1283	0.911133
10.0324	-85.6245	0.979492
10.0375	-79.0074	1.04785
10.0437	-76.4905	1.11621
10.0501	-71.7395	1.18457
10.0555	-70.3323	1.25293
10.0608	-73.3337	1.32129
10.0659	-73.9928	1.38965
10.072	-72.32914	1.45801
10.0776	-69.4585	1.52637
10.08338	-60.766	1.59473
10.08986	-53.769	1.66309
10.0954	-45.5112	1.73145
10.1008	-40.7546	1.7998
10.1068	-35.8935	1.86816
10.1107	-31.1192	1.93652
10.1181	-35.042	2.00488
10.12331	-34.1776	2.07324
10.1289	-34.2342	2.1416
10.1347	-32.2217	2.20996
10.1401	-24.4241	2.27832
10.1463	-17.7886	2.34668
10.1517	-12.8865	2.41504
10.1587	-4.006104	2.4834
10.1639	3.22621	2.55176
10.1688	6.6611	2.62012
10.1752	6.76777	2.68848
10.1795	6.459548	2.75684
10.1865	6.47073	2.8252
10.1917	5.60828	2.89355
10.19759	11.3102	2.96191
10.2034	18.6985	3.03027
10.209	23.8078	3.09863
10.2146	28.8933	3.16699
10.2216	41.6279	3.23535
10.2253	46.53339	3.30371
10.2313	48.1951	3.37207
10.2376	49.6746	3.44043
10.2434	48.629	3.50879
10.2488	46.063	3.57715
10.2532	48.9454	3.64551
10.2601	55.2333	3.71387
10.26641	58.0667	3.78223
10.2706	65.5327	3.85059
10.2762	78.0924	3.91895
10.2816	86.2091	3.9873
10.2883	87.8337	4.05566
10.2945	90.3286	4.12402
10.3002	93.1352	4.19238
10.3057	90.1009	4.26074
10.3109	92.0242	4.3291
10.3171	94.2345	4.39746
10.3222	96.41497	4.46582
10.3275	102.096	4.53418
10.3339	115.874	4.60254
10.33933	121.998	4.6709
10.34559	127.392	4.73926
10.3521	132.933	4.80762
10.3563	135.214	4.87598
10.3625	131.29	4.94434
10.3681	132.07	5.0127
10.3737	135.973	5.08105
10.378	133.736	5.14941
10.3849	137.756	5.21777
10.3912	150.1378	5.28613
10.3961	160.031	5.35449
10.4022	165.118	5.42285
10.4083	172.166	5.49121
10.4134	174.314	5.55957
10.4184	175.939	5.62793
10.4259	175.503	5.69629
10.4305	175.495	5.76465
10.4364	173.948	5.83301
10.4422	176.701	5.90137
10.4476	186.1	5.96973
10.4532	195.0352	6.03809
10.45918	200.411	6.10645
10.4643	209.704	6.1748
10.4701	217.449	6.24316
10.4758	219.758	6.31152
10.4813	219.855	6.37988
10.4877	219.156	6.44824
10.494	216.294	6.5166
10.4986	215.0663	6.58496
10.5048	224.2196	6.65332
10.5105	231.037	6.72168
10.51704	238.46	6.79004
10.5213	248.363	6.8584
10.5276	253.3586	6.92676
10.5338	260.49	6.99512
10.5383	263.066	7.06348
10.545	260.753	7.13184
10.551	258.394	7.2002
10.5563	257.036	7.26855
10.5612	262.698	7.33691
10.5668	267.315	7.40527
10.5732	276.006	7.47363
10.5804	283.924	7.54199
10.58459	291.142	7.61035
10.5906	300.158	7.67871
10.5951	303.213	7.74707
10.6012	302.718	7.81543
10.608	300.162	7.88379
10.6129	300.514	7.95215
10.6186	300.8356	8.02051
10.6239	303.173	8.08887
10.6298	311.101	8.15723
10.6357	319.066	8.22559
10.6412	327.099	8.29395
10.6466	337.25	8.3623
10.6528	343.562	8.43066
10.6582	342.408	8.49902
10.6642	341.565	8.56738
10.6702	344.602	8.63574
10.6753	342.312	8.7041
10.6814	340.728	8.77246
10.687	346.098	8.84082
10.6916	350.692	8.90918
10.6985	358.234	8.97754
10.7038	370.175	9.0459
10.7096	380.697	9.11426
10.71544	383.952	9.18262
10.72073	384.554	9.25098
10.7267	388.489	9.31934
10.7321	383.899	9.3877
10.7373	381.423	9.45605
10.7437	384.047	9.52441
10.7498	387.054	9.59277
10.7549	392.004	9.66113
10.7612	404.496	9.72949
10.766	415.475	9.79785
10.7722	419.178	9.86621
10.77788	424.249	9.93457
10.7837	429.866	10.00293
10.7897	427.084	10.0713
10.7946	422.627	10.1396
10.8007	423.432	10.208
10.8066	424.387	10.2764
10.8122	428.782	10.3447
10.8175	436.399	10.4131
10.8236	447.833	10.4814
10.8298	455.943	10.5498
10.835	460.666	10.6182
10.8411	471.043	10.6865
10.8459	470.189	10.7549
10.8521	465.199	10.8232
10.85814	464.971	10.8916
10.8639	462.862	10.96
10.8691	463.994	11.02832
10.8751	471.278	11.09668
10.8803	480.8374	11.165
10.8873	488.752	11.2334
10.8925	498.173	11.3018
10.8971	508.828	11.3701
10.904	509.5358	11.4385
10.9096	507.613	11.5068
10.9146	504.8418	11.5752
10.9197	502.878	11.6436
10.9255	501.841	11.7119
10.9313	506.667	11.7803
10.9376	511.93	11.8486
10.94278	520.99	11.917
10.9476	529.4599	11.9854
10.9541	542.647	12.0537
10.9597	545.961	12.12207
10.9671	547.488	12.19043
10.9723	545.571	12.2588
10.97662	541.582	12.3271
10.98351	542.287	12.3955
10.9881	541.859	12.4639
10.9948	546.029	12.5322
11.0005	551.876	12.6006
11.00519	563.388	12.6689
11.0114	574.131	12.7373
11.0181	580.789	12.8057
11.0229	584.057	12.874
11.02855	586.149	12.9424
11.0347	583.274	13.0107
11.0409	580.063	13.0791
11.0443	578.131	13.1475
11.0516	578.894	13.21582
11.0564	584.454	13.28418
11.0633	595.139	13.3525
11.0686	604.83	13.4209
11.0746	612.1925	13.4893
11.07947	621.7771	13.5576
11.0853	622.918	13.626
11.091	622.596	13.6943
11.09754	621.6745	13.7627
11.1026	617.381	13.8311
11.10836	612.998	13.8994
11.115	617.173	13.9678
11.1193	625.538	14.0361
11.1245	635.935	14.1045
11.1308	642.914	14.1729
11.1372	654.333	14.2412
11.1424	658.731	14.30957
11.147	659.573	14.37793
11.1538	660.897	14.4463
11.1595	656.957	14.5146
11.1651	651.544	14.583
11.1706	649.645	14.6514
11.1768	657.004	14.7197
11.1825	663.225	14.7881
11.1887	672.992	14.8564
11.1946	686.396	14.9248
11.1988	690.13	14.9932
11.2047	696.302	15.0615
11.2102	697.964	15.1299
11.2158	695.203	15.1982
11.2221	686.372	15.2666
11.2275	686.037	15.335
11.2333	692.632	15.40332
11.2393	692.728	15.47168
11.2448	702.537	15.54
11.2518	714.691	15.6084
11.2571	722.643	15.6768
11.2614	729.715	15.7451
11.2681	734.102	15.8135
11.2733	731.974	15.8818
11.27837	724.282	15.9502
11.2849	722.79	16.0186
11.291	725.686	16.0869
11.2968	724.094	16.1553
11.3023	730.802	16.2236
11.3073	742.307	16.292
11.3132	749.411	16.3604
11.3187	760.785	16.4287
11.32435	765.692	16.49707
11.3317	768.1084	16.56543
11.3359	761.25	16.6338
11.34088	758.396	16.7021
11.3473	760.449	16.7705
11.3537	757.373	16.8389
11.3585	759.824	16.9072
11.3644	769.011	16.9756
11.3709	777.35	17.0439
11.3764	788.39	17.1123
11.3825	797.685	17.1807
11.3868	800.339	17.249
11.3931	797.647	17.3174
11.3976	796.613	17.3857
11.4054	794.1452	17.4541
11.41093	789.624	17.5225
11.41552	791.28	17.59082
11.4219	796.795	17.65918
11.4277	805.408	17.7275
11.4333	815.308	17.7959
11.439	826.231	17.8643
11.4448	828.642	17.9326
11.4495	831.676	18.001
11.4558	830.851	18.0693
11.4612	828.603	18.1377
11.4681	821.628	18.2061
11.4727	822.638	18.2744
11.48	824.654	18.3428
11.4847	832.846	18.4111
11.4899	842.59	18.4795
11.4954	851.385	18.5479
11.5006	855.714	18.6162
11.5072	860.472	18.68457
11.5126	862.835	18.75293
11.5183	859.415	18.8213
11.52279	854.792	18.8896
11.5291	854.053	18.958
11.5357	852.247	19.0264
11.5416	858.905	19.0947
11.54635	866.073	19.1631
11.5518	875.835	19.2314
11.558	882.286	19.2998
11.5641	889.037	19.3682
11.5694	894.659	19.4365
11.5751	890.825	19.5049
11.5806	888.037	19.5732
11.586	885.453	19.6416
11.5917	880.502	19.71
11.5972	885.623	19.77832
11.6037	890.846	19.84668
11.6093	897.875	19.915
[...]
15.0853	1051.78	61.6436
15.0868	1055.32	61.6631
15.096	6.40938	61.6826
15.0956	-36.3911	61.7021
15.0962	-49.5508	61.72168
15.0955	-30.3242	61.7412
15.09746	-40.5211	61.7607
15.0993	-47.6045	61.7803
15.10161	-33.2046	61.7998
15.1027	-35.24622	61.8193
15.1026	-50.85973	61.8389
15.1048	-34.6437	61.8584
15.1066	-34.17234	61.87793
15.1077	-49.3851	61.8975
15.1097	-39.7721	61.917
15.1119	-28.0023	61.9365
15.1129	-49.9053	61.9561
15.1137	-44.0924	61.9756
15.1159	-28.77	61.9951
15.1179	-44.8727	62.0146
15.1198	-46.9821	62.03418
15.1208	-30.1162	62.0537
15.1221	-40.2569	62.0732
15.123	-48.3652	62.0928
15.1249	-30.4321	62.1123
15.127	-38.9487	62.1318
15.1283	-50.81218	62.1514
15.1302	-34.9954	62.1709
15.1317	-34.4058	62.19043
15.133	-49.5958	62.21
15.1354	-38.1252	62.2295
15.1362	-34.7744	62.249
15.1384	-45.5892	62.2686
15.14	-42.0384	62.2881
15.1406	-30.8878	62.3076
15.1429	-45.1614	62.3271
15.1447	-42.8241	62.34668
15.1467	-33.8642	62.3662
15.1476	-40.1966	62.3857
15.149	-48.6401	62.4053
15.1517	-32.0525	62.4248
15.1528	-37.1017	62.4443
15.1545	-46.7241	62.4639
15.1575	-39.1164	62.4834
15.1575	-33.5675	62.50293
15.1593	-48.7045	62.5225
15.1614	-38.7021	62.542
15.1623	-32.5343	62.5615
15.1646	-46.2426	62.5811
15.1655	-45.0199	62.6006
15.1674	-29.9701	62.6201
15.1683	-46.2084	62.6396
15.1708	-46.8807	62.65918
15.1718	-30.9726	62.6787
15.1745	-42.2146	62.6982
15.1756	-49.1712	62.7178
15.1768	-34.3629	62.7373
15.1788	-38.41814	62.7568
15.18	-49.5361	62.7764
15.1818	-33.0545	62.7959
15.184	-37.6762	62.81543
15.1862	-48.6303	62.835
15.1869	-39.4686	62.8545
15.1887	-32.5268	62.874
15.1903	-47.94619	62.8936
15.1914	-41.2073	62.9131
15.194	-34.2827	62.9326
15.1949	-43.368	62.9521
15.1967	-45.6476	62.97168
15.1992	-31.71678	62.9912
15.2006	-41.6776	63.0107
15.2013	-46.1193	63.0303
15.204	-35.6268	63.0498
15.2053	-35.4804	63.0693
15.2069	-50.6255	63.0889
15.20919	-35.1097	63.1084
15.2101	-35.4323	63.12793
15.2112	-46.97	63.1475
15.214	-42.8003	63.167
15.215	-33.1731	63.1865
15.2166	-48.2178	63.2061
15.2169	-41.0835	63.2256
15.21912	-31.1875	63.2451
15.2215	-45.631	63.2646
15.2229	-46.7986	63.28418
15.2241	-31.4552	63.3037
15.2257	-43.441	63.3232
15.2272	-48.3221	63.3428
15.2295	-33.80373	63.3623
15.2297	-39.9137	63.3818
15.2324	-49.3553	63.4014
15.23351	-36.8923	63.4209
15.2358	-36.10619	63.44043
15.2383	-50.4764	63.46
15.2395	-36.0002	63.4795
15.2405	-35.1117	63.499
15.2425	-47.2904	63.5186
15.244	-42.90015	63.5381
15.245	-32.2319	63.5576
15.2473	-45.28344	63.5771
15.2489	-44.58	63.59668
15.25	-35.8003	63.6162
15.2514	-39.0069	63.6357
15.2551	-47.4724	63.6553
15.2542	-33.6951	63.6748
15.2569	-39.6752	63.6943
15.2584	-47.4771	63.7139
15.2599	-37.9218	63.7334
15.2609	-32.8116	63.75293
15.263	-51.3861	63.7725
15.2645	-37.4637	63.792
15.2676	-33.00267	63.8115
15.26848	-46.1058	63.8311
15.2699	-45.2851	63.8506
15.272	-32.1547	63.8701
15.2726	-45.9596	63.8896
15.2748	-45.13718	63.90918
15.2773	-29.5801	63.9287
15.2774	-43.2492	63.9482
15.2792	-48.2965	63.9678
15.2817	-32.3981	63.9873
15.2829	-40.6844	64.0068
15.2845	-50.1755	64.0264
15.2853	-36.4928	64.0459
15.2887	-37.7888	64.06543
15.2899	-48.4913	64.085
15.2912	-38.3321	64.1045
15.2928	-34.6895	64.124
15.2952	-48.894	64.1436
15.2958	-40.00544	64.1631
15.2974	-33.5205	64.1826
15.2991	-46.7993	64.2021
15.3001	-45.6399	64.22168
15.302	-31.7784	64.2412
15.305	-42.8154	64.2607
15.3053	-46.0498	64.2803
15.3076	-38.0014	64.2998
15.309	-37.1758	64.3193
15.3104	-48.8453	64.3389
15.3137	-35.9043	64.3584
15.3137	-37.0106	64.37793
15.3156	-49.1159	64.3975
15.3168	-41.3411	64.417
15.3187	-32.0739	64.4365
15.3199	-50.3544	64.4561
15.3224	-43.7556	64.4756
15.3228	-34.0295	64.4854