Folder: Stress_Strain_Analysis_Tools/data/processed_data_files/tensile (part 48)

File: 0.254_solid_uprint_typei_4545_r(6).dat
MTS793|BTW|ENU|1|2|.|/|:|1|0|0|A

Data Header:			0.254_solid_uprint_typei_4545_r0			Time:	20.0173	s	4/14/2019 4:33:03 AM
Data Acquisition:	Timed
Station Name:	ft40.cfg
Test File Name:	monotonic_0.2540_typei_solid_4545_uprint.tst
Displacement	Force	Running Time
mm	N	s
9.95821	-105.376	0.0224609
9.95844	-101.161	0.0908203
9.96506	-96.892	0.15918
9.9694	-89.9535	0.227539
9.97552	-86.70327	0.295898
9.98152	-88.9035	0.364258
9.98762	-90.2041	0.432617
9.99243	-88.2798	0.500977
9.99788	-90.4573	0.569336
10.0043	-90.8194	0.637695
10.01	-80.6587	0.706055
10.0156	-71.9995	0.774414
10.0214	-67.1438	0.842773
10.02661	-59.6703	0.911133
10.033	-54.0621	0.979492
10.0375	-52.80761	1.04785
10.0443	-51.4796	1.11621
10.0499	-53.4874	1.18457
10.0554	-55.7589	1.25293
10.0613	-55.2386	1.32129
10.0662	-48.7474	1.38965
10.0721	-43.8687	1.45801
10.0772	-36.5996	1.52637
10.0846	-25.9172	1.59473
10.0891	-20.3876	1.66309
10.0959	-16.1421	1.73145
10.1009	-15.1797	1.7998
10.1068	-15.2022	1.86816
10.1115	-19.7286	1.93652
10.1176	-19.25429	2.00488
10.1242	-13.301	2.07324
10.12879	-9.35913	2.1416
10.1341	-4.57913	2.20996
10.1403	4.7237	2.27832
10.1467	12.07131	2.34668
10.1519	19.8317	2.41504
10.1575	22.586	2.4834
10.1641	23.7099	2.55176
10.1687	18.5035	2.62012
10.1749	20.4332	2.68848
10.1807	22.8004	2.75684
10.1869	23.3941	2.8252
10.1926	29.4192	2.89355
10.1967	38.208	2.96191
10.2041	46.7905	3.03027
10.209	53.8393	3.09863
10.2145	60.6463	3.16699
10.2202	60.7496	3.23535
10.2259	59.2581	3.30371
10.2316	60.1446	3.37207
10.2364	59.2847	3.44043
10.2436	61.3162	3.50879
10.249	63.4735	3.57715
10.2544	70.7852	3.64551
10.2594	82.4571	3.71387
10.2661	89.8485	3.78223
10.2712	95.8871	3.85059
10.2772	98.5958	3.91895
10.2836	99.3393	3.9873
10.2885	100.982	4.05566
10.2943	99.1125	4.12402
10.3005	99.09185	4.19238
10.3055	102.505	4.26074
10.3118	103.562	4.3291
10.3168	115.301	4.39746
10.3231	123.418	4.46582
10.3283	130.214	4.53418
10.3335	134.629	4.60254
10.3405	138.681	4.6709
10.3439	141.629	4.73926
10.3509	139.768	4.80762
10.3578	137.5717	4.87598
10.3635	138.4917	4.94434
10.369	139.239	5.0127
10.3752	148.205	5.08105
10.37967	156.622	5.14941
10.3864	161.078	5.21777
10.3911	169.58	5.28613
10.3966	178.2	5.35449
10.4027	179.849	5.42285
10.4079	177.659	5.49121
10.4137	178.084	5.55957
10.4194	175.904	5.62793
10.4256	175.381	5.69629
10.4299	181.298	5.76465
10.4368	189.324	5.83301
10.44189	193.967	5.90137
10.4481	203.021	5.96973
10.4527	214.642	6.03809
10.4598	217.154	6.10645
10.4647	217.516	6.1748
10.47047	219.687	6.24316
10.4767	216.027	6.31152
10.4813	215.184	6.37988
10.4885	218.368	6.44824
10.4938	222.603	6.5166
10.4987	226.06	6.58496
10.5045	236.772	6.65332
10.5111	248.808	6.72168
10.5161	251.4525	6.79004
10.522	255.853	6.8584
10.5291	257.6553	6.92676
10.533	254.69	6.99512
10.539	255.012	7.06348
10.5455	255.596	7.13184
10.5509	256.003	7.2002
10.5558	258.481	7.26855
10.5613	268.329	7.33691
10.5679	282.389	7.40527
10.57433	285.112	7.47363
10.57817	292.514	7.54199
10.5862	295.798	7.61035
10.5912	294.445	7.67871
10.59504	292.047	7.74707
10.6032	294.213	7.81543
10.6074	291.38	7.88379
10.6136	291.801	7.95215
10.6181	303.206	8.02051
10.6247	311.6055	8.08887
10.6304	317.525	8.15723
10.63605	325.578	8.22559
10.641	332.473	8.29395
10.6479	334.936	8.3623
10.6526	335.041	8.43066
10.6584	332.585	8.49902
10.66436	330.21	8.56738
10.6693	328.242	8.63574
10.6755	333.99	8.7041
10.6802	340.844	8.77246
10.6873	347.246	8.84082
10.6927	359.186	8.90918
10.6985	366.575	8.97754
10.7053	372.898	9.0459
10.7098	373.842	9.11426
10.716	372.689	9.18262
10.72129	368.826	9.25098
10.7271	366.035	9.31934
10.7338	367.454	9.3877
10.739	371.222	9.45605
10.74443	377.6745	9.52441
10.7491	387.688	9.59277
10.755	397.027	9.66113
10.7618	407.74	9.72949
10.7675	411.742	9.79785
10.7723	411.597	9.86621
10.779	407.847	9.93457
10.784	406.073	10.00293
10.7899	405.25	10.0713
10.7953	405.773	10.1396
10.802	408.517	10.208
10.8065	416.993	10.2764
10.8126	427.558	10.3447
10.8185	438.578	10.4131
10.8239	445.041	10.4814
10.8292	446.641	10.5498
10.8356	445.623	10.6182
10.8411	445.557	10.6865
10.8467	442.102	10.7549
10.8528	439.4754	10.8232
10.8582	442.992	10.8916
10.8638	448.68	10.96
10.86924	458.974	11.02832
10.8742	469.791	11.09668
10.8819	477.315	11.165
10.8868	480.938	11.2334
10.8916	484.096	11.3018
10.898	485.043	11.3701
10.9037	479.139	11.4385
10.9089	477.8071	11.5068
10.9163	476.986	11.5752
10.9203	477.143	11.6436
10.92669	487.394	11.7119
10.933	498.263	11.7803
10.9373	505.556	11.8486
10.9437	512.042	11.917
10.9487	520.91	11.9854
10.9546	521.475	12.0537
10.9613	516.467	12.12207
10.9658	514.543	12.19043
10.973	512.208	12.2588
10.9778	510.799	12.3271
10.9826	517.319	12.3955
10.9892	527.438	12.4639
10.995	532.781	12.5322
11.0001	542.842	12.6006
11.0065	554.139	12.6689
11.0121	553.563	12.7373
11.01804	552.535	12.8057
11.0235	552.051	12.874
11.0286	548.402	12.9424
11.034	545	13.0107
11.0403	548.071	13.0791
11.046	553.79	13.1475
11.0507	559.371	13.21582
11.0578	571.697	13.28418
11.0623	581.7417	13.3525
11.0688	588.556	13.4209
11.0745	587.097	13.4893
11.0805	587.978	13.5576
11.0851	581.895	13.626
11.09075	579.295	13.6943
11.097	581.006	13.7627
11.1032	582.16	13.8311
11.1076	584.902	13.8994
11.1137	596.4696	13.9678
11.1208	613.122	14.0361
11.1252	615.576	14.1045
11.1309	620.1189	14.1729
11.137	622.4165	14.2412
11.1423	617.3067	14.30957
11.148	612.924	14.37793
11.153	613.748	14.4463
11.1592	612.532	14.5146
11.1657	613.087	14.583
11.1715	626.443	14.6514
11.1766	637.6969	14.7197
11.1818	643.274	14.7881
11.1892	652.043	14.8564
11.1937	656.884	14.9248
11.1996	653.907	14.9932
11.206	649.014	15.0615
11.2111	648.813	15.1299
11.2166	641.198	15.1982
11.2223	642.658	15.2666
11.2284	652	15.335
11.2337	660.739	15.40332
11.2393	669.575	15.47168
11.2457	680.503	15.54
11.2521	684.594	15.6084
11.2567	687.713	15.6768
11.2623	684.361	15.7451
11.2677	681.665	15.8135
11.2741	674.382	15.8818
11.28	674.225	15.9502
11.2851	679.694	16.0186
11.291	686.087	16.0869
11.2958	693.604	16.1553
11.3024	705.417	16.2236
11.3085	711.7962	16.292
11.3131	716.646	16.3604
11.31962	718.08	16.4287
11.325	715.239	16.49707
11.3309	708.874	16.56543
11.3363	705.421	16.6338
11.34132	709.33	16.7021
11.3484	711.748	16.7705
11.3543	717.827	16.8389
11.3586	729.383	16.9072
11.36465	739.263	16.9756
11.3705	746.233	17.0439
11.3763	748.641	17.1123
11.3825	746.125	17.1807
11.3881	742.0943	17.249
11.393	739.029	17.3174
11.3986	738.674	17.3857
11.4045	737.807	17.4541
11.4109	743.3891	17.5225
11.4155	750.456	17.59082
11.4211	763.4613	17.65918
11.4273	772.841	17.7275
11.433	777.236	17.7959
11.4392	774.919	17.8643
11.4439	774.911	17.9326
11.4501	771.931	18.001
11.4564	766.719	18.0693
11.4606	765.81	18.1377
11.46703	770.447	18.2061
11.4728	772.916	18.2744
11.47823	786.331	18.3428
11.4842	794.683	18.4111
11.4889	799.61	18.4795
11.4968	803.373	18.5479
11.5011	805.834	18.6162
11.5074	802.591	18.68457
11.5134	795.104	18.75293
11.5177	795.063	18.8213
11.5243	794.176	18.8896
11.52928	798.124	18.958
11.5351	808.422	19.0264
11.5419	818.349	19.0947
11.5471	821.878	19.1631
11.553	828.812	19.2314
11.5582	833.804	19.2998
11.5646	829.604	19.3682
11.5697	825.133	19.4365
11.5765	824.6463	19.5049
11.5815	821.107	19.5732
11.5873	821.932	19.6416
11.5919	829.388	19.71
11.59809	837.706	19.77832
11.6045	843.037	19.84668
11.6094	851.588	19.915
11.6149	860.3573	19.9834
[...]
17.0016	1018.5	84.6318
17.0049	1036.35	84.6709
17.007	1021.57	84.71
17.0115	1024.35	84.749
17.0143	1035.37	84.7881
17.0172	1015.68	84.8271
17.0204	1030.23	84.8662
17.0244	1032.759	84.9053
17.027	1016.429	84.9443
17.0306	1036.14	84.9834
17.0331	1023.2	85.0225
17.0376	1024.7	85.0615
17.0397	1035.2	85.1006
17.0431	1018.81	85.1396
17.0467	1031.84	85.1787
17.0503	1030.53	85.2178
17.0525	1018.64	85.2568
17.0567	1036.11	85.2959
17.0601	1024.73	85.335
17.0633	1022.18	85.374
17.067	1035.09	85.4131
17.0694	1016.18	85.4521
17.0723	1027.394	85.4912
17.0758	1028.74	85.5303
17.0794	1018.62	85.5693
17.0831	1031.07	85.6084
17.0858	1021.38	85.6475
17.0894	1021.28	85.6865
17.0925	1030.34	85.7256
17.0947	1017.611	85.7646
17.0984	1028.79	85.8037
17.1009	1027.11	85.8428
17.1059	1015.5	85.8818
17.1084	1033.26	85.9209
17.1122	1017.76	85.96
17.11659	1021.89	85.999
17.1197	1033.1	86.0381
17.1221	1015.9	86.0771
17.125	1028.63	86.1162
17.1279	1029.74	86.1553
17.13171	1016.416	86.1943
17.13385	1032.1	86.2334
17.1378	1022.17	86.2725
17.1417	1021.7	86.3115
17.1436	1034.48	86.3506
17.1483	1015.68	86.3896
17.15155	1028.38	86.4287
17.1531	1027.76	86.4678
17.1576	1015.59	86.5068
17.1613	1032.407	86.5459
17.16403	1020.38	86.585
17.1671	1018.73	86.624
17.1708	1031.66	86.6631
17.1735	1014.47	86.7021
17.1768	1022.06	86.7412
17.1806	1026.44	86.7803
17.1835	1011.77	86.8193
17.1867	1028.32	86.8584
17.1898	1018.06	86.8975
17.1934	1017.931	86.9365
17.1961	1026.18	86.9756
17.2004	1011.59	87.0146
17.2034	1024.36	87.0537
17.2069	1017.91	87.0928
17.2097	997.784	87.1318
17.2177	-28.0732	87.1709
17.2186	-50.7789	87.21
17.22	-44.1006	87.249
17.2237	-31.1831	87.2881
17.2269	-52.4331	87.3271
17.2298	-35.2022	87.3662
17.2324	-36.7125	87.4053
17.2365	-48.8265	87.4443
17.2398	-28.5456	87.4834
17.243	-47.2877	87.5225
17.2468	-41.68082	87.5615
17.2487	-33.49773	87.6006
17.2527	-46.9742	87.6396
17.256	-37.0512	87.6787
17.2591	-38.1388	87.7178
17.2627	-49.9665	87.7568
17.2646	-31.3646	87.7959
17.2688	-46.7137	87.835
17.272	-45.23634	87.874
17.2761	-32.3269	87.9131
17.278	-50.1518	87.9521
17.2812	-38.08437	87.9912
17.284	-38.8211	88.0303
17.2896	-48.2694	88.0693
17.2923	-37.1635	88.1084
17.2955	-46.1131	88.1475
17.29883	-44.1319	88.1865
17.301	-35.8933	88.2256
17.3047	-48.1294	88.2646
17.3086	-36.0668	88.3037
17.3101	-39.17395	88.3428
17.3144	-50.03495	88.3818
17.3174	-30.4569	88.4209
17.3202	-47.9895	88.46
17.3246	-42.6933	88.499
17.327	-32.8361	88.5381
17.3313	-48.5396	88.5771
17.3342	-36.0034	88.6162
17.3373	-37.0979	88.6553
17.3401	-47.0774	88.6943
17.3432	-32.6589	88.7334
17.3466	-43.2089	88.7725
17.3493	-41.508	88.8115
17.353	-31.68051	88.8506
17.3556	-49.0816	88.8896
17.3596	-34.5491	88.9287
17.3641	-38.2662	88.9678
17.3666	-49.7057	89.0068
17.3705	-32.3147	89.0459
17.37215	-44.3333	89.085
17.3755	-47.1235	89.124
17.3794	-32.1486	89.1631
17.3826	-50.0969	89.2021
17.3866	-42.785	89.2412
17.3896	-39.0783	89.2803
17.3924	-49.9994	89.3193
17.3958	-36.9978	89.3584
17.3983	-47.4726	89.3975
17.4025	-43.191	89.4365
17.4047	-37.2235	89.4756
17.4078	-48.813	89.5146
17.4119	-37.0998	89.5537
17.4154	-39.9229	89.5928
17.4179	-47.60022	89.6318
17.4209	-31.9837	89.6709
17.4243	-45.4869	89.71
17.4286	-44.3507	89.749
17.4308	-31.5794	89.7881
17.4348	-47.3903	89.8271
17.43861	-36.642	89.8662
17.4412	-37.0039	89.9053
17.4436	-46.5274	89.9443
17.4483	-33.3464	89.9834
17.4515	-43.6972	90.0225
17.4551	-43.435	90.0615
17.4588	-34.5494	90.1006
17.4611	-49.3903	90.1396
17.4643	-37.584	90.1787
17.4681	-37.0811	90.2178
17.4689	-52.3027	90.2568
17.474	-32.4677	90.2959
17.4769	-45.9591	90.335
17.4804	-46.4429	90.374
17.4819	-34.5008	90.4131
17.48427	-32.3717	90.4229

File: 0.254_solid_uprint_typeiv_090_r(1).dat
MTS793|BTW|ENU|1|2|.|/|:|1|0|0|A

Data Header:			0.254_solid_uprint_typeiv_090_r0			Time:	20.0183	s	4/14/2019 1:00:12 AM
Data Acquisition:	Timed
Station Name:	ft40.cfg
Test File Name:	monotonic_0.2540_typeiv_solid_090_uprint.tst
Displacement	Force	Running Time
mm	N	s
-40.0402	-223.298	0.0229492
-40.0391	-223.719	0.0913086
-40.0327	-212.47	0.159668
-40.0276	-208.678	0.228027
-40.0216	-206.922	0.296387
-40.0155	-201.288	0.364746
-40.0107	-199.732	0.433105
-40.0056	-196.961	0.501465
-39.99947	-193.274	0.569824
-39.9938	-192.967	0.638184
-39.9873	-193.43	0.706543
-39.9815	-189.834	0.774902
-39.9762	-180.421	0.843262
-39.9702	-177.204	0.911621
-39.9651	-172.231	0.97998
-39.9589	-165.617	1.04834
-39.9547	-164.8792	1.1167
-39.9478	-161.504	1.18506
-39.9412	-158.209	1.253418
-39.9364	-157.621	1.32178
-39.9306	-158.5361	1.39014
-39.9254	-154.837	1.4585
-39.9195	-145.685	1.52686
-39.9128	-143.519	1.59521
-39.9089	-137.094	1.66357
-39.9023	-132.0562	1.73193
-39.8963	-127.124	1.800293
-39.8905	-123.928	1.86865
-39.885	-123.4881	1.93701
-39.8796	-122.242	2.00537
-39.8728	-122.294	2.07373
-39.8685	-119.742	2.14209
-39.8625	-113.265	2.21045
-39.8569	-111.508	2.27881
-39.851	-104.969	2.347168
-39.8459	-100.494	2.41553
-39.8394	-94.1687	2.48389
-39.8336	-88.8934	2.55225
-39.8279	-87.6141	2.62061
-39.8229	-87.40081	2.68896
-39.8164	-86.5024	2.75732
-39.811	-83.0086	2.82568
-39.8048	-79.0218	2.894043
-39.8005	-75.43869	2.9624
-39.7934	-69.4194	3.03076
-39.7878	-65.8504	3.09912
-39.78252	-59.5098	3.16748
-39.77734	-54.6228	3.23584
-39.7705	-52.4406	3.3042
-39.7654	-52.3779	3.37256
-39.75959	-51.6294	3.440918
-39.75304	-47.1302	3.50928
-39.7491	-46.1293	3.57764
-39.7427	-42.6133	3.646
-39.7364	-36.5783	3.71436
-39.7315	-34.0461	3.78271
-39.7259	-26.57127	3.85107
-39.72	-18.971	3.91943
-39.7145	-18.1132	3.987793
-39.7078	-18.6904	4.05615
-39.7029	-14.2956	4.12451
-39.6977	-9.85112	4.19287
-39.6906	-10.5864	4.26123
-39.686	-8.762392	4.32959
-39.681	-3.39947	4.39795
-39.676	-1.48147	4.46631
-39.6682	6.22972	4.534668
-39.66272	13.4779	4.60303
-39.6568	15.2484	4.67139
-39.6514	14.967	4.73975
-39.6452	20.17421	4.80811
-39.6412	26.5666	4.87646
-39.6346	24.1603	4.94482
-39.6293	26.8981	5.01318
-39.62302	31.5679	5.081543
-39.6167	33.9343	5.1499
-39.6119	38.811	5.21826
-39.6058	45.83511	5.28662
-39.6002	47.6613	5.35498
-39.5956	49.2152	5.42334
-39.5894	55.9713	5.4917
-39.5842	60.6042	5.56006
-39.5769	59.4793	5.628418
-39.5731	60.7326	5.69678
-39.566	64.9603	5.76514
-39.5609	66.90963	5.8335
-39.55463	72.595	5.90186
-39.5485	77.84227	5.97021
-39.5437	82.1894	6.03857
-39.5383	82.7094	6.10693
-39.5327	91.0335	6.175293
-39.5258	95.3916	6.24365
-39.5207	95.0261	6.31201
-39.5146	97.849	6.38037
-39.5087	99.9512	6.44873
-39.5039	102.7223	6.51709
-39.4984	105.928	6.58545
-39.4931	110.972	6.65381
-39.4874	115.276	6.722168
-39.481	115.018	6.79053
-39.4759	125.099	6.85889
-39.4686	129.117	6.92725
-39.4634	129.575	6.99561
-39.4576	133.182	7.06396
-39.4517	136.174	7.13232
-39.44743	136.4586	7.20068
-39.4421	137.715	7.269043
-39.436	142.394	7.3374
-39.4293	144.621	7.40576
-39.4245	150.031	7.47412
-39.4186	158.758	7.54248
-39.4124	161.463	7.61084
-39.40704	164.9063	7.6792
-39.4012	166.5096	7.74756
-39.3958	169.1	7.815918
-39.3894	169.746	7.88428
-39.384	171.794	7.95264
-39.377	172.763	8.021
-39.373	175.982	8.08936
-39.3661	180.525	8.15771
-39.3614	189.263	8.22607
-39.3562	193.469	8.29443
-39.3505	196.838	8.362793
-39.3438	201.211	8.43115
-39.33926	200.406	8.49951
-39.3327	202.6279	8.56787
-39.32777	204.2195	8.63623
-39.3231	205.144	8.70459
-39.3156	208.35	8.77295
-39.3106	213.269	8.84131
-39.3042	219.18	8.909668
-39.2995	224.468	8.97803
-39.29314	229.529	9.04639
-39.2882	232.475	9.11475
-39.2808	233.847	9.18311
-39.275	235.959	9.25146
-39.2707	239.311	9.31982
-39.2653	236.301	9.38818
-39.2571	238.372	9.456543
-39.252	244.197	9.5249
-39.2475	248.74	9.59326
-39.242	253.438	9.66162
-39.2351	260.07	9.72998
-39.2299	263.884	9.79834
-39.2239	267.407	9.8667
-39.2197	272.033	9.93506
-39.2126	271.21	10.0034
-39.2072	267.796	10.0718
-39.20097	270.671	10.1401
-39.1959	276.215	10.2085
-39.1909	278.958	10.2769
-39.1847	284.242	10.3452
-39.1785	290.108	10.4136
-39.1737	293.462	10.4819
-39.1675	297.8111	10.5503
-39.1619	301.839	10.6187
-39.1565	303.422	10.687
-39.1515	298.169	10.7554
-39.1451	300.251	10.82373
-39.1393	308.8	10.89209
-39.1323	306.793	10.9604
-39.12738	310.326	11.0288
-39.12162	319.712	11.0972
-39.1161	320.913	11.1655
-39.1104	324.349	11.2339
-39.1048	329.8031	11.3022
-39.10004	332.1254	11.3706
-39.09338	328.498	11.439
-39.0875	330.213	11.5073
-39.0814	337.391	11.5757
-39.077	336.197	11.644
-39.0709	338.079	11.7124
-39.0653	344.308	11.7808
-39.0593	349.086	11.8491
-39.0539	352.729	11.91748
-39.047	356.966	11.98584
-39.0419	359.161	12.0542
-39.03735	356.728	12.1226
-39.0304	358.052	12.1909
-39.0252	363.872	12.2593
-39.019	362.621	12.3276
-39.0144	364.609	12.396
-39.00935	369.355	12.4644
-39.0021	372.59	12.5327
-38.9962	377.278	12.6011
-38.9908	384.2	12.6694
-38.9855	385.563	12.7378
-38.9802	384.473	12.8062
-38.9742	386.0506	12.8745
-38.9688	389.52	12.9429
-38.9631	387.781	13.01123
-38.9586	388.881	13.07959
-38.9515	393.383	13.1479
-38.9455	396.632	13.2163
-38.9402	400.193	13.2847
-38.9336	404.076	13.353
-38.9279	406.7	13.4214
-38.9221	406.196	13.4897
-38.9172	412.14	13.5581
-38.9112	411.837	13.6265
-38.9057	411.699	13.6948
-38.8996	412.771	13.7632
-38.8948	415.972	13.8315
-38.8883	418.569	13.8999
-38.8827	420.321	13.9683
-38.8775	424.284	14.0366
-38.8708	425.2872	14.10498
-38.8653	426.463	14.17334
-38.8597	432.268	14.2417
-38.8537	433.92	14.3101
-38.8495	431.451	14.3784
-38.8427	432.889	14.4468
-38.8374	432.388	14.5151
-38.8318	435.877	14.5835
-38.8252	435.591	14.6519
-38.8204	439.356	14.7202
-38.8137	440.718	14.7886
-38.8087	444.037	14.8569
-38.8023	447.702	14.9253
-38.7967	446.648	14.9937
-38.7917	447.991	15.062
-38.7865	446.631	15.1304
-38.7802	445.168	15.19873
-38.7752	447.06	15.26709
-38.7685	447.947	15.3354
-38.7633	448.3	15.4038
-38.7575	448.482	15.4722
-38.7522	453.464	15.5405
-38.7467	457.078	15.6089
-38.7399	456.1441	15.6772
-38.7354	457.03	15.7456
-38.7293	455.745	15.814
-38.7234	452.445	15.8823
-38.7173	453.267	15.9507
-38.7126	453.957	16.019
-38.707	451.205	16.0874
-38.7004	450.734	16.1558
-38.69577	457.777	16.2241
-38.6894	461.86	16.29248
-38.6839	459.264	16.36084
-38.6775	462.1	16.4292
-38.6732	459.646	16.4976
-38.667	456.859	16.5659
-38.6607	456.792	16.6343
-38.6557	456.874	16.7026
-38.6494	453.39	16.771
-38.6444	451.124	16.8394
-38.6378	456.346	16.9077
-38.632	459.206	16.9761
-38.6265	458.12	17.0444
-38.6205	460.616	17.1128
-38.6148	460.738	17.1812
-38.6093	457.964	17.2495
-38.6039	457.986	17.3179
-38.5977	457.58	17.38623
-38.5933	451.146	17.45459
-38.5864	449.114	17.5229
-38.5811	455.105	17.5913
-38.5752	455.657	17.6597
-38.5709	455.379	17.728
-38.5628	458.151	17.7964
-38.5588	457.744	17.8647
-38.5521	458.358	17.9331
-38.54768	455.858	18.0015
-38.5412	453.83	18.0698
-38.5354	447.21	18.1382
-38.5294	445.8851	18.2065
-38.5242	452.078	18.2749
-38.5169	451.682	18.3433
-38.5134	449.62	18.4116
-38.5076	453.938	18.47998
-38.5008	454.556	18.54834
-38.4958	453.263	18.6167
-38.4895	452.856	18.6851
-38.4835	450.0141	18.7534
-38.4786	445.372	18.8218
-38.4733	442.336	18.8901
-38.4669	445.926	18.9585
-38.4625	445.151	19.0269
[...]
-37.841	436.68	26.4683
-37.8374	431.79	26.5269
-37.8321	434.255	26.5854
-37.8261	432.023	26.644
-37.823	430.497	26.7026
-37.8178	433.566	26.76123
-37.8121	431.767	26.8198
-37.8072	435.501	26.8784
-37.8029	435.621	26.937
-37.7974	440.369	26.9956
-37.7933	434.896	27.0542
-37.7872	440.781	27.1128
-37.7827	434.557	27.1714
-37.7773	436.378	27.22998
-37.7728	434.595	27.2886
-37.7683	435.606	27.3472
-37.7637	433.3992	27.4058
-37.7585	431.45	27.4644
-37.7534	432.719	27.5229
-37.7492	432.54	27.5815
-37.7442	432.614	27.6401
-37.738	435.228	27.69873
-37.7343	435.938	27.7573
-37.7287	435.388	27.8159
-37.7243	439.167	27.8745
-37.7189	438.997	27.9331
-37.7147	437.753	27.9917
-37.7101	440.2265	28.0503
-37.7043	437.656	28.1089
-37.6996	438.475	28.16748
-37.6945	435.93	28.2261
-37.6902	436.841	28.2847
-37.685	431.129	28.3433
-37.6798	431.68	28.4019
-37.6757	432.396	28.4604
-37.6697	427.913	28.519
-37.6657	431.678	28.5776
-37.6603	430.014	28.63623
-37.656	434.374	28.6948
-37.6512	430.719	28.7534
-37.64653	437.564	28.812
-37.642	432.635	28.8706
-37.6354	438.34	28.9292
-37.63168	435.584	28.9878
-37.6259	437.812	29.0464
-37.6223	434.402	29.10498
-37.6175	434.928	29.1636
-37.6123	434.641	29.2222
-37.6069	432.029	29.2808
-37.6022	432.517	29.3394
-37.5977	432.36	29.3979
-37.5913	430.899	29.4565
-37.5881	431.491	29.5151
-37.583	432.932	29.57373
-37.5778	433.157	29.6323
-37.5722	434.7283	29.6909
-37.5682	437.974	29.7495
-37.5636	434.0448	29.8081
-37.5582	438.889	29.8667
-37.5533	436.632	29.9253
-37.5481	438.0593	29.9839
-37.5433	434.154	30.04248
-37.5388	436.4241	30.1011
-37.5332	432.991	30.1597
-37.5291	429.653	30.2183
-37.5236	430.445	30.2769
-37.5177	429.985	30.3354
-37.5138	430.335	30.394
-37.5092	428.514	30.4526
-37.5045	431.967	30.51123
-37.5	427.569	30.5698
-37.4939	436.479	30.6284
-37.4894	432.07	30.687
-37.485	434.639	30.7456
-37.4794	434.164	30.8042
-37.4755	436.91	30.8628
-37.47049	434.472	30.9214
-37.4651	434.498	30.97998
-37.46106	434.705	31.0386
-37.4554	431.815	31.0972
-37.4511	430.194	31.1558
-37.446	428.88	31.2144
-37.4406	429.386	31.2729
-37.4363	426.19	31.3315
-37.4307	428.852	31.3901
-37.4258	430.108	31.44873
-37.4213	428.222	31.5073
-37.417	432.231	31.5659
-37.4113	431.156	31.6245
-37.407	433.255	31.6831
-37.40089	430.744	31.7417
-37.3969	435.326	31.8003
-37.3929	431.613	31.8589
-37.3875	429.962	31.91748
-37.3816	430.428	31.9761
-37.3766	425.677	32.0347
-37.3726	425.952	32.0933
-37.3677	422.158	32.1519
-37.36216	420.129	32.2104
-37.354	-57.7668	32.269
-37.3523	-42.58326	32.3276
-37.3474	-44.2676	32.38623
-37.3433	-41.284	32.4448
-37.3385	-41.1079	32.5034
-37.3323	-39.4125	32.562
-37.3281	-40.8527	32.6206
-37.3236	-37.6836	32.6792
-37.3177	-36.6286	32.7378
-37.3142	-37.4927	32.7964
-37.3081	-35.6374	32.85498
-37.3041	-36.8477	32.9136
-37.299	-40.5924	32.9722
-37.2947	-41.0783	33.0308
-37.29023	-42.1581	33.0894
-37.2847	-44.08091	33.1479
-37.27953	-42.3789	33.2065
-37.2741	-41.0085	33.2651
-37.2711	-43.0192	33.32373
-37.26556	-41.6476	33.3823
-37.2594	-39.9397	33.4409
-37.2545	-37.8926	33.4995
-37.2501	-39.6087	33.5581
-37.2466	-35.4338	33.6167
-37.2403	-38.2488	33.6753
-37.2362	-38.8541	33.7339
-37.2303	-38.2383	33.79248
-37.2252	-41.5387	33.8511
-37.2221	-40.52396	33.9097
-37.2157	-44.4434	33.9683
-37.2115	-43.4378	34.0269
-37.2068	-48.0485	34.0854
-37.2018	-44.1637	34.144
-37.1965	-47.5891	34.2026
-37.1913	-41.5575	34.26123
-37.1869	-44.6381	34.3198
-37.1823	-39.4696	34.3784
-37.1774	-40.2993	34.437
-37.1716	-39.1988	34.4956
-37.1683	-35.6032	34.5542
-37.1633	-36.7195	34.6128
-37.1583	-36.5402	34.6714
-37.15197	-37.1482	34.72998
-37.1478	-38.10561	34.7886
-37.1442	-41.84597	34.8374