Folder: Stress_Strain_Analysis_Tools/data/processed_data_files/tensile

File: 0.254_hd_dimension_typei_090_r(1).dat
MTS793|BTW|ENU|1|2|.|/|:|1|0|0|A

Data Header:			0.254_hd_dimension_typei_090_r0			Time:	20.0193	s	4/15/2019 3:31:24 PM
Data Acquisition:	Timed
Station Name:	ft40.cfg
Test File Name:	monotonic_0.2540_typei_hd_090_dimension.tst
Displacement	Force	Running Time
mm	N	s
9.98145	-207.132	0.0222168
9.98095	-209.0137	0.0905762
9.98766	-205.686	0.158936
9.99212	-202.636	0.227295
9.99877	-199.584	0.2956543
10.0044	-200.976	0.364014
10.00984	-202.2372	0.432373
10.0158	-202.592	0.500732
10.022	-202.672	0.5690918
10.0268	-199.234	0.637451
10.0336	-197.0114	0.705811
10.0385	-196.089	0.77417
10.0451	-192.178	0.8425293
10.0504	-184.784	0.910889
10.0557	-182.758	0.979248
10.062	-182.624	1.04761
10.06667	-181.099	1.11597
10.073	-183.7935	1.18433
10.0779	-183.676	1.25269
10.0849	-179.938	1.32104
10.09	-176.8257	1.3894
10.0956	-177.033	1.45776
10.102	-174.347	1.526123
10.1064	-164.164	1.59448
10.113	-160.294	1.66284
10.1186	-161.111	1.7312
10.12411	-157.969	1.79956
10.1298	-157.029	1.86792
10.1358	-159.4688	1.93628
10.141	-155.698	2.00464
10.1459	-153.048	2.072998
10.1526	-152.575	2.14136
10.1586	-148.631	2.20972
10.1626	-138.878	2.27808
10.169	-135.002	2.34644
10.1762	-133.644	2.41479
10.1813	-128.983	2.48315
10.1861	-127.225	2.55151
10.1927	-129.456	2.619873
10.1984	-127.511	2.68823
10.204	-124.289	2.75659
10.2095	-125.853	2.82495
10.21432	-122.134	2.89331
10.2204	-113.266	2.96167
10.2269	-107.446	3.03003
10.2321	-105.4252	3.09839
10.2379	-99.7496	3.166748
10.2427	-95.3239	3.23511
10.249	-95.2592	3.30347
10.2553	-95.2551	3.37183
10.2611	-94.4127	3.44019
10.2656	-95.2701	3.50854
10.2717	-92.1587	3.5769
10.2777	-82.676	3.64526
10.2838	-77.996	3.713623
10.2888	-72.1919	3.78198
10.2966	-67.7481	3.85034
10.2998	-63.7213	3.9187
10.3055	-62.49622	3.98706
10.3112	-60.7721	4.05542
10.3178	-63.12854	4.12378
10.3231	-61.9383	4.19214
10.3286	-60.3255	4.260498
10.3354	-53.9366	4.32886
10.3409	-46.1684	4.39722
10.3463	-40.5959	4.46558
10.3531	-35.4917	4.53394
10.35759	-33.75729	4.60229
10.3633	-28.38649	4.67065
10.3688	-25.4931	4.73901
10.3743	-26.5577	4.807373
10.3808	-27.3858	4.87573
10.3851	-26.04796	4.94409
10.3929	-18.1481	5.01245
10.3968	-17.1063	5.08081
10.4029	-10.9676	5.14917
10.4077	-3.14518	5.21753
10.414	-1.35173	5.28589
10.4202	6.2304	5.354248
10.4255	10.4921	5.42261
10.4319	9.66171	5.49097
10.4374	6.81992	5.55933
10.443	7.35933	5.62769
10.4493	14.5524	5.69604
10.4538	15.0055	5.7644
10.46	20.0332	5.83276
10.4662	29.9427	5.901123
10.4718	32.4912	5.96948
10.4772	38.2704	6.03784
10.4824	44.7948	6.1062
10.48851	45.9874	6.17456
10.4938	41.9734	6.24292
10.5006	44.0502	6.31128
10.5053	49.2585	6.37964
10.5109	49.2421	6.447998
10.517	54.695	6.51636
10.523	62.3473	6.58472
10.5282	65.6804	6.65308
10.5347	73.289	6.72144
10.53997	79.1082	6.78979
10.5457	82.0925	6.85815
10.55087	78.50988	6.92651
10.558	80.4698	6.994873
10.5626	85.5227	7.06323
10.5678	85.55304	7.13159
10.5739	86.1962	7.19995
10.5796	93.4175	7.26831
10.5854	99.4479	7.33667
10.591	107.105	7.40503
10.5967	112.956	7.47339
10.6023	117.136	7.541748
10.6087	116.88	7.61011
10.6142	115.831	7.67847
10.6194	121.491	7.74683
10.6254	120.954	7.81519
10.6298	123.045	7.88354
10.6374	127.875	7.9519
10.6413	132.724	8.02026
10.6471	141.1465	8.088623
10.6532	148.047	8.15698
10.6597	148.953	8.22534
10.666	151.095	8.2937
10.6717	154.095	8.36206
10.67667	156.931	8.43042
10.6825	156.819	8.49878
10.6872	157.732	8.56714
10.6933	161.152	8.635498
10.6983	164.799	8.70386
10.7048	173.534	8.77222
10.7108	181.6275	8.84058
10.7161	182.174	8.90894
10.7216	185.019	8.97729
10.7273	190.191	9.04565
10.7336	193.991	9.11401
10.7394	192.901	9.182373
10.7443	196.46	9.25073
10.7502	197.37	9.31909
10.7553	198.35	9.38745
10.7631	205.738	9.45581
10.7676	212.598	9.52417
10.7727	215.216	9.59253
10.7793	218.952	9.66089
10.7853	225.324	9.729248
10.7898	230.974	9.79761
10.7961	228.171	9.86597
10.8022	230.0004	9.93433
10.8069	231.261	10.0027
10.81374	233.095	10.071
10.819	237.372	10.1394
10.8243	245.455	10.2078
10.82995	248.717	10.2761
10.8359	251.198	10.3445
10.8417	260.878	10.4128
10.8474	266.0433	10.4812
10.8533	264.956	10.5496
10.85941	264.565	10.61792
10.8638	268.74	10.6863
10.869	269.532	10.7546
10.875	270.404	10.823
10.88032	276.981	10.8914
10.8871	282.56	10.9597
10.8922	284.589	11.0281
10.8976	291.552	11.0964
10.9041	300.631	11.1648
10.9099	301.62	11.2332
10.91513	303.403	11.3015
10.9207	304.205	11.3699
10.9268	304.848	11.4382
10.933	306.359	11.5066
10.9382	310.981	11.575
10.9438	313.189	11.6433
10.9488	316.632	11.71167
10.9553	326.156	11.78
10.9613	333.6311	11.8484
10.96654	335.47	11.9167
10.9722	340.247	11.9851
10.9783	339.517	12.0535
10.9843	338.823	12.1218
10.9898	341.753	12.1902
10.9954	343.087	12.2585
11.0017	345.684	12.3269
11.0063	348.649	12.3953
11.0123	357.621	12.4636
11.0181	365.153	12.532
11.02409	368.495	12.6003
11.0289	374.169	12.6687
11.03527	373.81	12.7371
11.0416	373.779	12.80542
11.0479	376.353	12.8738
11.051	377.696	12.9421
11.0573	377.453	13.0105
11.0634	380.24	13.0789
11.0686	387.966	13.1472
11.075	397.108	13.2156
11.0807	400.384	13.2839
11.08672	406.556	13.3523
11.0914	411.408	13.4207
11.0985	409.301	13.489
11.1039	410.967	13.5574
11.1094	412.555	13.6257
11.1147	410.466	13.6941
11.1208	413.031	13.7625
11.1259	418.5274	13.8308
11.1316	429.383	13.89917
11.1373	430.583	13.9675
11.1433	439.362	14.0359
11.1488	444.845	14.1042
11.15426	443.279	14.1726
11.16115	443.779	14.241
11.1656	447.3363	14.3093
11.1718	444.944	14.3777
11.177	444.583	14.446
11.1835	449.713	14.5144
11.1897	459.511	14.5828
11.1948	462.436	14.6511
11.2004	468.8905	14.7195
11.2062	475.15	14.7878
11.2119	478.055	14.8562
11.21702	477.93	14.9246
11.22297	480.827	14.99292
11.2289	479.984	15.0613
11.2346	477.661	15.1296
11.23904	481.185	15.198
11.2462	487.935	15.2664
11.2513	494.743	15.3347
11.25742	498.913	15.4031
11.2628	506.6452	15.4714
11.2684	509.618	15.5398
11.2745	513.918	15.6082
11.2789	516.089	15.6765
11.2867	515.7605	15.7449
11.2918	511.882	15.8132
11.2983	513.044	15.8816
11.3016	520.007	15.95
11.3086	522.779	16.0183
11.3145	529.614	16.08667
11.3206	535.963	16.155
11.3261	539.292	16.2234
11.33059	545.426	16.2917
11.3365	547.346	16.3601
11.3419	544.999	16.4285
11.3487	544.407	16.4968
11.3542	546.347	16.5652
11.3595	549.181	16.6335
11.3652	551.813	16.7019
11.37	558.541	16.7703
11.3771	565.007	16.8386
11.3831	569.387	16.907
11.3883	574.579	16.9753
11.3933	578.909	17.0437
11.4003	578.316	17.1121
11.4065	576.255	17.18042
11.4111	579.451	17.2488
11.4163	580.053	17.3171
11.422	580.904	17.3855
11.4278	586.125	17.4539
11.4334	594.513	17.5222
11.4395	598.33	17.5906
11.445	604.7356	17.6589
11.4505	611.523	17.7273
11.4568	610.672	17.7957
11.4635	607.284	17.864
11.4682	609.936	17.9324
11.4741	614.403	18.0007
11.4789	611.181	18.0691
11.4856	612.9765	18.1375
11.4901	620.5	18.2058
11.4968	624.423	18.27417
11.501	630.206	18.3425
11.5069	638.906	18.4109
11.5128	641.4776	18.4792
11.5197	639.062	18.5476
11.525	640.379	18.616
11.53032	643.6134	18.6843
11.5375	641.689	18.7527
11.5414	643.6	18.821
11.5472	646.815	18.8894
11.5531	652.762	18.9578
11.5588	658.432	19.0261
11.5656	665.719	19.0945
11.5705	669.917	19.1628
11.5765	669.625	19.2312
11.5821	671.888	19.2996
11.5872	675.533	19.36792
11.5927	672.722	19.4363
11.6002	672.4682	19.5046
11.60542	674.769	19.573
11.6102	677.962	19.6414
11.6164	685.935	19.7097
11.6211	694.3205	19.7781
[...]
13.5731	831.103	43.1863
13.5744	838.988	43.2253
13.5786	829.437	43.2644
13.5829	836.547	43.3035
13.5863	833.472	43.3425
13.5882	828.005	43.3816
13.5927	839.428	43.4207
13.5955	831.239	43.4597
13.598	830.4809	43.4988
13.60187	842.471	43.5378
13.604	828.2981	43.5769
13.6078	836.635	43.616
13.6114	838.606	43.655
13.6143	827.58	43.6941
13.6171	839.84	43.7332
13.622	833.167	43.7722
13.6237	831.4	43.8113
13.62759	838.63	43.8503
13.6314	831.756	43.8894
13.6353	835.603	43.9285
13.6372	838.322	43.9675
13.6408	832.69	44.0066
13.64393	841.096	44.0457
13.647	834.072	44.0847
13.6505	833.962	44.1238
13.655	842.495	44.1628
13.6576	829.29	44.2019
13.661	836.516	44.241
13.6629	837.513	44.28
13.667	828.514	44.3191
13.6695	841.3819	44.3582
13.6737	833.234	44.3972
13.6766	831.896	44.4363
13.6803	838.835	44.4753
13.6824	829.993	44.5144
13.6869	834.366	44.5535
13.6893	836.418	44.5925
13.6931	827.718	44.6316
13.6957	839.43	44.6707
13.6997	830.244	44.7097
13.7022	829.851	44.7488
13.70562	840.567	44.7878
13.7082	824.985	44.8269
13.7121	833.704	44.866
13.7155	836.561	44.905
13.71857	825.3941	44.9441
13.7216	836.621	44.9832
13.7242	835.0105	45.0222
13.7278	826.282	45.0613
13.7318	838.069	45.1003
13.7359	828.763	45.1394
13.7391	832.3548	45.1785
13.7415	836.522	45.2175
13.7452	828.2627	45.2566
13.74768	838.624	45.2957
13.7511	830.932	45.3347
13.7552	833.023	45.3738
13.7576	838.963	45.4128
13.7597	828.575	45.4519
13.7639	837.333	45.491
13.7676	836.348	45.53
13.7714	829.005	45.5691
13.7734	839.454	45.6082
13.77718	833.719	45.6472
13.78141	829.2	45.6863
13.7831	838.329	45.7253
13.7874	828.79	45.7644
13.79	832.814	45.8035
13.7941	835.039	45.8425
13.7967	825.708	45.8816
13.7996	837.352	45.9207
13.8029	826.941	45.9597
13.8065	829.276	45.9988
13.8095	836.483	46.0378
13.8137	823.913	46.0769
13.8162	831.75	46.116
13.82008	835.579	46.155
13.823	824.538	46.1941
13.827	836.114	46.2332
13.8283	830.426	46.2722
13.8328	824.748	46.3113
13.83639	834.874	46.3503
13.8391	825.957	46.3894
13.8424	828.8847	46.4285
13.84492	831.235	46.4675
13.84943	824.609	46.5066
13.8526	833.502	46.5457
13.8555	826.992	46.5847
13.85928	827.83	46.6238
13.8612	832.578	46.6628
13.86482	822.893	46.7019
13.8676	830.2417	46.741
13.8719	829.3891	46.78
13.8745	819.672	46.8191
13.883	-38.5401	46.8582
13.8832	-42.5954	46.8972
13.8859	-46.4303	46.9363
13.8888	-35.9335	46.9753
13.8908	-48.3614	47.0144
13.8957	-40.8862	47.0535
13.8989	-40.0681	47.0925
13.9004	-47.43943	47.1316
13.9058	-38.6266	47.1707
13.9083	-45.6577	47.2097
13.912	-46.1054	47.2488
13.9159	-39.54641	47.2878
13.9179	-49.7421	47.3269
13.92213	-43.5952	47.366
13.9242	-41.8408	47.405
13.9274	-51.688	47.4441
13.9301	-40.7843	47.4832
13.9346	-47.3366	47.5222
13.9372	-49.3182	47.5613
13.9411	-40.5373	47.6003
13.9437	-48.9975	47.6394
13.94789	-43.8142	47.6785
13.95	-43.4079	47.7175
13.9533	-46.0085	47.7566
13.9573	-43.3065	47.7957
13.9593	-47.2732	47.8347
13.9631	-47.2163	47.8738
13.9661	-42.3483	47.9128
13.9695	-50.1523	47.9519
13.9734	-40.93005	47.991
13.9766	-42.4873	48.03
13.98	-50.6797	48.0691
13.983	-38.5827	48.1082
13.9856	-47.8184	48.1472
13.99	-46.1558	48.1863
13.9923	-39.4172	48.2253
13.9958	-49.1408	48.2644
13.9982	-42.5443	48.3035
14.0031	-40.4581	48.3425
14.0052	-47.14397	48.3816
14.009	-40.49728	48.4207
14.0125	-45.4463	48.4597
14.0158	-45.6041	48.4988
14.0189	-38.4779	48.5378
14.0227	-48.3038	48.5769
14.0255	-42.9613	48.616
14.0281	-41.5742	48.655
14.031	-52.0059	48.6941
14.0353	-39.76049	48.7332
14.0375	-48.54	48.7722
14.0409	-47.4966	48.8113
14.0452	-39.90625	48.8503
14.048	-50.1622	48.8894
14.0507	-45.3158	48.9285
14.054	-43.0542	48.9675
14.05738	-49.6087	49.0066
14.0605	-40.0616	49.0359

File: 0.254_hd_dimension_typei_090_r(2).dat
MTS793|BTW|ENU|1|2|.|/|:|1|0|0|A

Data Header:			0.254_hd_dimension_typei_090_r0			Time:	20.0176	s	4/15/2019 3:34:19 PM
Data Acquisition:	Timed
Station Name:	ft40.cfg
Test File Name:	monotonic_0.2540_typei_hd_090_dimension.tst
Displacement	Force	Running Time
mm	N	s
9.98021	-160.049	0.0222168
9.98199	-160.342	0.0905762
9.98684	-160.789	0.158936
9.99266	-159.744	0.227295
9.99863	-160.051	0.2956543
10.0049	-154.775	0.364014
10.0099	-149.547	0.432373
10.0165	-146.914	0.500732
10.0208	-143.393	0.5690918
10.0272	-135.687	0.637451
10.0326	-132.336	0.705811
10.0387	-132.59	0.77417
10.0447	-133.246	0.8425293
10.0513	-132.588	0.910889
10.0561	-133.147	0.979248
10.0608	-129.8932	1.04761
10.067	-121.733	1.11597
10.0727	-120.315	1.18433
10.0787	-118.093	1.25269
10.0851	-108.42	1.32104
10.0912	-102.712	1.3894
10.096	-102.93	1.45776
10.1013	-100.471	1.526123
10.1068	-99.8929	1.59448
10.1123	-101.543	1.66284
10.11909	-99.0255	1.7312
10.12382	-95.0973	1.79956
10.1303	-92.5767	1.86792
10.1355	-91.1462	1.93628
10.1407	-79.7343	2.00464
10.1469	-73.7157	2.072998
10.1523	-71.3206	2.14136
10.1582	-69.2588	2.20972
10.1631	-65.3174	2.27808
10.1688	-66.956	2.34644
10.1749	-65.5234	2.41479
10.1808	-62.8827	2.48315
10.1865	-60.2411	2.55151
10.1923	-57.9478	2.619873
10.1981	-52.0618	2.68823
10.2037	-42.3792	2.75659
10.2093	-40.0907	2.82495
10.2151	-35.5479	2.89331
10.2213	-31.9533	2.96167
10.22695	-31.8145	3.03003
10.2327	-31.251	3.09839
10.2385	-29.8667	3.166748
10.2445	-29.50864	3.23511
10.24936	-27.072	3.30347
10.2557	-19.9073	3.37183
10.2611	-10.9243	3.44019
10.2663	-7.80548	3.50854
10.2715	-2.61184	3.5769
10.277	1.33583	3.64526
10.2828	0.452539	3.713623
10.2889	3.60057	3.78198
10.2955	5.01415	3.85034
10.3008	4.99306	3.9187
10.3062	7.03622	3.98706
10.3122	13.4283	4.05542
10.3173	22.0312	4.12378
10.323	25.4736	4.19214
10.3295	32.2918	4.260498
10.3355	36.6889	4.32886
10.3407	38.4876	4.39722
10.3446	39.452	4.46558
10.3517	42.4875	4.53394
10.3575	40.3614	4.60229
10.36277	39.7184	4.67065
10.3684	46.6344	4.73901
10.3743	53.5566	4.807373
10.3792	57.59314	4.87573
10.3861	66.9286	4.94409
10.3917	72.8321	5.01245
10.3968	74.2826	5.08081
10.40271	76.4499	5.14917
10.4083	80.5001	5.21753
10.4135	77.3272	5.28589
10.4203	75.9366	5.354248
10.4252	80.60408	5.42261
10.4314	88.0577	5.49097
10.4366	90.5087	5.55933
10.443	96.9099	5.62769
10.4475	105.5123	5.69604
10.45403	107.926	5.7644
10.4598	112.819	5.83276
10.46611	114.74	5.901123
10.4717	116.566	5.96948
10.4771	112.74	6.03784
10.48227	113.485	6.1062
10.489	123.4884	6.17456
10.4941	124.701	6.24292
10.4998	128.888	6.31128
10.5055	138.98	6.37964
10.5114	144.129	6.447998
10.5167	148.706	6.51636
10.5217	151.2552	6.58472
10.5287	152.507	6.65308
10.5352	150.658	6.72144
10.5388	150.929	6.78979
10.5445	156.395	6.85815
10.5513	158.023	6.92651
10.5563	162.757	6.994873
10.5633	170.169	7.06323
10.5682	175.6	7.13159
10.5737	183.193	7.19995
10.5794	185.999	7.26831
10.5846	188.4	7.33667
10.5918	186.2166	7.40503
10.5971	187.99	7.47339
10.6025	190.199	7.541748
10.6082	192.251	7.61011
10.6136	196.636	7.67847
10.6204	202.69	7.74683
10.6248	207.864	7.81519
10.6312	216.309	7.88354
10.6362	221.94	7.9519
10.642	222.633	8.02026
10.6473	221.135	8.088623
10.6536	224.984	8.15698
10.6596	227.227	8.22534
10.6648	226.633	8.2937
10.6701	228.927	8.36206
10.6764	236.2332	8.43042
10.6815	241.709	8.49878
10.6876	249.342	8.56714
10.6931	256.515	8.635498
10.70013	260.287	8.70386
10.70452	257.095	8.77222
10.7118	261.645	8.84058
10.7166	263.517	8.90894
10.7222	263.422	8.97729
10.7281	262.878	9.04565
10.7328	269.175	9.11401
10.7398	274.221	9.182373
10.7441	280.156	9.25073
10.7499	289.53	9.31909
10.7555	295.636	9.38745
10.76215	294.4769	9.45581
10.7668	296.5	9.52417
10.77332	301.596	9.59253
10.778	299.081	9.66089
10.7846	298.698	9.729248
10.7905	302.65	9.79761
10.7963	306.655	9.86597
10.801	313.075	9.93433
10.8069	319.295	10.0027
10.8135	327.179	10.071
10.8167	328.111	10.1394
10.8249	332.5379	10.2078
10.8311	338.065	10.2761
10.8352	337.555	10.3445
10.8416	336.103	10.4128
10.8479	336.768	10.4812
10.8522	338.844	10.5496
10.8583	346.223	10.61792
10.8646	351.373	10.6863
10.8696	358.473	10.7546
10.8753	361.912	10.823
10.881	366.7	10.8914
10.8868	372.4	10.9597
10.89301	371.205	11.0281
10.8984	371.4545	11.0964
10.9051	371.307	11.1648
10.909	371.545	11.2332
10.9157	377.632	11.3015
10.9209	382.429	11.3699
10.9271	389.614	11.4382
10.9329	393.444	11.5066
10.9394	400.004	11.575
10.9444	407.296	11.6433
10.9488	407.249	11.71167
10.9556	404.851	11.78
10.9603	408.784	11.8484
10.9663	406.964	11.9167
10.972	409.548	11.9851
10.9775	415.291	12.0535
10.98357	420.304	12.1218
10.9889	425.053	12.1902
10.9955	431.5126	12.2585
11.0021	440.687	12.3269
11.006	442.754	12.3953
11.0132	439.012	12.4636
11.0184	442.665	12.532
11.0235	442.218	12.6003
11.0298	441.716	12.6687
11.0339	446.287	12.7371
11.0423	451.274	12.80542
11.0457	454.033	12.8738
11.0518	459.542	12.9421
11.0573	471.201	13.0105
11.0645	474.157	13.0789
11.0688	474.791	13.1472
11.0749	477.29	13.2156
11.08112	479.122	13.2839
11.08635	477.603	13.3523
11.0925	478.0434	13.4207
11.0976	482.184	13.489
11.1039	485.034	13.5574
11.1088	490.468	13.6257
11.1142	500.198	13.6941
11.1209	507.102	13.7625
11.1265	507.732	13.8308
11.13125	509.848	13.89917
11.1372	511.542	13.9675
11.14286	511.17	14.0359
11.14958	511.843	14.1042
11.1539	514.065	14.1726
11.1613	515.654	14.241
11.1665	520.301	14.3093
11.171	529.713	14.3777
11.1772	536.536	14.446
11.1838	541.404	14.5144
11.1889	544.341	14.5828
11.1955	543.568	14.6511
11.2007	544.044	14.7195
11.206	545.224	14.7878
11.2109	545.135	14.8562
11.2171	545.081	14.9246
11.2214	551.537	14.99292
11.2285	558.169	15.0613
11.2347	563.927	15.1296
11.2395	570.528	15.198
11.2464	576.704	15.2664
11.2523	575.196	15.3347
11.2567	577.998	15.4031
11.26305	577.52	15.4714
11.2685	577.328	15.5398
11.2744	574.837	15.6082
11.2808	578.643	15.6765
11.2853	587.817	15.7449
11.2912	592.329	15.8132
11.29698	598.231	15.8816
11.3033	604.053	15.95
11.3089	609.089	16.0183
11.314	606.06	16.08667
11.3204	610.294	16.155
11.3252	611.263	16.2234
11.3311	606.42	16.2917
11.3361	608.045	16.3601
11.3427	615.366	16.4285
11.3479	621.84	16.4968
11.3538	625.573	16.5652
11.35988	632.6004	16.6335
11.365	638.857	16.7019
11.3709	639.566	16.7703
11.3775	641.243	16.8386
11.3824	642.648	16.907
11.3877	639.549	16.9753
11.394	635.827	17.0437
11.39933	643.589	17.1121
11.406	647.5694	17.18042
11.412	650.88	17.2488
11.4177	658.9549	17.3171
11.4226	664.898	17.3855
11.427	668.685	17.4539
11.43359	672.7326	17.5222
11.4397	672.863	17.5906
11.44471	669.505	17.6589
11.4514	668.265	17.7273
11.4574	671.063	17.7957
11.4616	674.474	17.864
11.4686	678.93	17.9324
11.4733	684.999	18.0007
11.4795	690.813	18.0691
11.48535	695.909	18.1375
11.4912	700.9826	18.2058
11.4971	701.051	18.27417
11.50229	700.01	18.3425
11.5082	699.302	18.4109
11.5135	700.993	18.4792
11.5194	701.252	18.5476
11.5244	704.653	18.616
11.531	711.304	18.6843
11.5363	717.825	18.7527
11.5435	721.294	18.821
11.5476	728.159	18.8894
11.5532	730.885	18.9578
11.55855	728.102	19.0261
11.5653	726.179	19.0945
11.5697	728.354	19.1628
11.5767	728.5509	19.2312
11.5819	728.598	19.2996
11.588	734.84	19.36792
11.593	741.3595	19.4363
11.599	744.297	19.5046
11.6049	751.572	19.573
11.6098	756.3244	19.6414
11.6165	754.664	19.7097
11.6221	754.747	19.7781
11.6274	756.592	19.8464
[...]
13.5558	827.552	42.991
13.559	833.408	43.03
13.5624	836.296	43.0691
13.5661	827.9751	43.1082
13.5691	835.189	43.1472
13.5719	832.518	43.1863
13.575	828.343	43.2253
13.5789	837.064	43.2644
13.582	825.789	43.3035
13.5841	833.442	43.3425
13.5887	833.141	43.3816
13.5916	826.267	43.4207
13.5951	836.014	43.4597
13.5984	827.458	43.4988
13.6022	828.911	43.5378
13.60474	837.69	43.5769
13.6083	823.656	43.616
13.6115	831.064	43.655
13.6153	836.363	43.6941
13.6181	821.915	43.7332
13.6209	834.626	43.7722
13.6238	832.069	43.8113
13.62722	824.573	43.8503
13.6314	837.2514	43.8894
13.6344	826.762	43.9285
13.63743	830.563	43.9675
13.6413	833.855	44.0066
13.6441	827.673	44.0457
13.6465	833.3255	44.0847
13.6515	830.84	44.1238
13.6531	829.813	44.1628
13.6572	836.993	44.2019
13.6597	828.253	44.241
13.663	831.684	44.28
13.6661	834.839	44.3191
13.6696	824.704	44.3582
13.6732	838.007	44.3972
13.677	831.636	44.4363
13.6793	827.917	44.4753
13.6836	836.077	44.5144
13.6863	826.273	44.5535
13.6896	832.533	44.5925
13.6918	830.731	44.6316
13.6961	825.358	44.6707
13.6993	833.9184	44.7097
13.7024	826.148	44.7488
13.7067	824.936	44.7878
13.709	835.08	44.8269
13.7122	822.262	44.866
13.7154	831.023	44.905
13.7188	833.356	44.9441
13.7228	820.384	44.9832
13.7255	835.533	45.0222
13.729	829.54	45.0613
13.7315	824.536	45.1003
13.7348	833.666	45.1394
13.7387	824.861	45.1785
13.7411	827.221	45.2175
13.74501	832.202	45.2566
13.7475	824.814	45.2957
13.75096	832.186	45.3347
13.7544	827.455	45.3738
13.758	826.899	45.4128
13.7607	834.343	45.4519
13.7639	824.151	45.491
13.7672	832.55	45.53
13.7696	832.912	45.5691
13.7741	824.243	45.6082
13.7768	834.581	45.6472
13.7808	829.053	45.6863
13.7833	826.43	45.7253
13.78646	834.288	45.7644
13.791	825.077	45.8035
13.7932	827.738	45.8425
13.7969	830.296	45.8816
13.8006	821.9621	45.9207
13.8032	830.886	45.9597
13.8066	824.449	45.9988
13.8102	823.091	46.0378
13.8136	833.017	46.0769
13.8163	818.832	46.116
13.8201	826.34	46.155
13.8233	828.133	46.1941
13.82555	817.748	46.2332
13.8286	830.906	46.2722
13.8327	825.49	46.3113
13.8359	818.765	46.3503
13.839	830.921	46.3894
13.8425	820.226	46.4285
13.8443	821.244	46.4675
13.8488	827.304	46.5066
13.8524	815.91	46.5457
13.8619	-49.8602	46.5847
13.8622	-42.7564	46.6238
13.8627	-48.902	46.6628
13.8661	-42.2334	46.7019
13.8691	-49.4913	46.741
13.8726	-42.6857	46.78
13.8755	-40.5726	46.8191
13.8797	-48.6268	46.8582
13.8824	-39.72337	46.8972
13.8851	-42.64246	46.9363
13.8883	-46.5451	46.9753
13.8919	-37.8221	47.0144
13.8947	-48.6383	47.0535
13.8991	-42.4454	47.0925
13.9011	-41.213	47.1316
13.9059	-49.3953	47.1707
13.9076	-40.61916	47.2097
13.91157	-47.2697	47.2488
13.9153	-47.0779	47.2878
13.9169	-40.5026	47.3269
13.9217	-50.9088	47.366
13.92399	-44.7974	47.405
13.9266	-41.5689	47.4441
13.9304	-52.1891	47.4832
13.9343	-39.87785	47.5222
13.9372	-46.1731	47.5613
13.9404	-50.3133	47.6003
13.944	-39.2968	47.6394
13.9473	-49.8329	47.6785
13.9509	-43.94656	47.7175
13.9533	-42.8733	47.7566
13.9565	-47.9384	47.7957
13.9595	-43.8576	47.8347
13.9637	-45.29829	47.8738
13.9669	-45.8106	47.9128
13.9693	-41.5208	47.9519
13.973	-49.548	47.991
13.977	-42.1691	48.03
13.9793	-44.044	48.0691
13.9839	-49.5851	48.1082
13.98577	-36.7855	48.1472
13.9903	-45.242	48.1863
13.9919	-47.0843	48.2253
13.9965	-38.9646	48.2644
13.999	-47.7255	48.3035
14.0022	-42.2838	48.3425
14.0059	-41.3908	48.3816
14.0088	-46.9695	48.4207
14.0121	-40.1017	48.4597
14.0149	-44.9685	48.4988
14.0187	-48.44368	48.5378
14.0225	-40.76503	48.5769
14.0254	-50.0832	48.616
14.0283	-42.3238	48.655
14.031	-42.914	48.6941
14.0348	-52.13134	48.7332
14.0382	-41.3858	48.7722
14.0421	-47.5099	48.8113
14.04398	-44.5353	48.8406