Folder: Stress_Strain_Analysis_Tools/data/processed_data_files/tensile (part 9)

File: 0.254_hd_dimension_typeiv_090_r(5).dat
MTS793|BTW|ENU|1|2|.|/|:|1|0|0|A

Data Header:			0.254_hd_dimension_typeiv_090_r0			Time:	20.01709	s	4/14/2019 12:33:00 AM
Data Acquisition:	Timed
Station Name:	ft40.cfg
Test File Name:	monotonic_0.2540_typeiv_hd_090_dimension.tst
Displacement	Force	Running Time
mm	N	s
-40.04084	-33.1432	0.0224609
-40.0405	-33.4385	0.0908203
-40.0351	-28.1994	0.15918
-40.0295	-24.62396	0.227539
-40.0234	-19.0823	0.295898
-40.01749	-14.3347	0.364258
-40.0116	-9.47258	0.432617
-40.0066	-5.85954	0.500977
-40.0004	-4.90002	0.569336
-39.99514	-7.20631	0.637695
-39.9889	-5.03125	0.706055
-39.9845	1.14005	0.774414
-39.9786	4.3908	0.842773
-39.97205	8.32524	0.911133
-39.9672	14.6353	0.979492
-39.9609	18.6981	1.04785
-39.9539	23.8544	1.11621
-39.949	29.0379	1.18457
-39.9435	29.2913	1.25293
-39.9387	28.6206	1.32129
-39.9322	30.8831	1.38965
-39.9259	37.0932	1.45801
-39.9206	37.1179	1.52637
-39.9154	40.986	1.59473
-39.9094	48.9961	1.66309
-39.90387	50.5312	1.73145
-39.8986	57.43	1.7998
-39.8924	63.4714	1.86816
-39.88728	63.3148	1.93652
-39.88192	63.5044	2.00488
-39.875	66.7413	2.07324
-39.8696	71.0593	2.1416
-39.8642	69.9889	2.20996
-39.8575	74.6997	2.27832
-39.85326	80.74279	2.34668
-39.8469	84.4124	2.41504
-39.8413	89.49353	2.4834
-39.8354	97.128	2.55176
-39.8301	95.5477	2.62012
-39.8239	95.8774	2.68848
-39.8198	101.05	2.75684
-39.8134	104.655	2.8252
-39.80801	104.929	2.89355
-39.8013	108.733	2.96191
-39.7954	112.834	3.03027
-39.7901	117.541	3.09863
-39.7844	120.97	3.16699
-39.7786	128.189	3.23535
-39.773	129.635	3.30371
-39.769	129.416	3.37207
-39.76107	137.26	3.44043
-39.7556	138.547	3.50879
-39.74942	137.6	3.57715
-39.7442	141.255	3.64551
-39.7391	143.314	3.71387
-39.7344	146.2157	3.78223
-39.728	153.238	3.85059
-39.7228	158.097	3.91895
-39.7154	159.478	3.9873
-39.7112	160.926	4.05566
-39.7045	169.641	4.12402
-39.6995	171.701	4.19238
-39.6935	171.016	4.26074
-39.6878	173.722	4.3291
-39.683	176.011	4.39746
-39.677	178.828	4.46582
-39.6702	181.659	4.53418
-39.6649	188.484	4.60254
-39.6596	190.467	4.6709
-39.6526	194.532	4.73926
-39.6484	201.155	4.80762
-39.6426	203.4026	4.87598
-39.63755	204.607	4.94434
-39.6303	207.346	5.0127
-39.6251	206.6	5.08105
-39.6189	210.8183	5.14941
-39.6144	213.091	5.21777
-39.6089	217.265	5.28613
-39.6022	221.362	5.35449
-39.5964	227.1143	5.42285
-39.5903	233.445	5.49121
-39.5851	236.086	5.55957
-39.5791	238.918	5.62793
-39.5742	240.095	5.69629
-39.5677	240.641	5.76465
-39.5628	244.091	5.83301
-39.5567	245.2442	5.90137
-39.5513	245.59	5.96973
-39.5455	248.299	6.03809
-39.5397	256.6366	6.10645
-39.5338	262.36	6.1748
-39.5281	267.468	6.24316
-39.5221	270.487	6.31152
-39.5168	271.341	6.37988
-39.5113	271.571	6.44824
-39.5056	274.587	6.5166
-39.4994	276.872	6.58496
-39.4937	274.437	6.65332
-39.4882	278.527	6.72168
-39.4825	287.729	6.79004
-39.4772	291.474	6.8584
-39.4716	294.574	6.92676
-39.4668	300.597	6.99512
-39.4593	300.979	7.06348
-39.45414	301.1156	7.13184
-39.4495	304.546	7.2002
-39.44249	306.53	7.26855
-39.4383	302.601	7.33691
-39.4322	307.523	7.40527
-39.4259	315.63	7.47363
-39.4193	318.141	7.54199
-39.4136	321.944	7.61035
-39.4086	328.276	7.67871
-39.4029	328.884	7.74707
-39.3982	331.2728	7.81543
-39.3915	332.79	7.88379
-39.3862	332.3988	7.95215
-39.3806	329.2438	8.02051
-39.3746	334.255	8.08887
-39.3694	341.252	8.15723
-39.3633	342.973	8.22559
-39.3578	347.512	8.29395
-39.3506	356.009	8.3623
-39.3468	356.086	8.43066
-39.34182	357.172	8.49902
-39.3346	361.888	8.56738
-39.3295	361.103	8.63574
-39.3229	358.47	8.7041
-39.3183	361.019	8.77246
-39.3119	367.455	8.84082
-39.3056	367.648	8.90918
-39.3001	372.552	8.97754
-39.2948	379.302	9.0459
-39.2885	381.455	9.11426
-39.283	385.674	9.18262
-39.2782	389.351	9.25098
-39.2717	388.486	9.31934
-39.2668	383.607	9.3877
-39.2614	385.664	9.45605
-39.2548	390.114	9.52441
-39.2491	389.7601	9.59277
-39.24305	394.345	9.66113
-39.2372	400.4884	9.72949
-39.2316	403.609	9.79785
-39.2269	407.405	9.86621
-39.222	409.926	9.93457
-39.2145	409.415	10.00293
-39.2098	406.419	10.0713
-39.2036	410.217	10.1396
-39.1974	411.819	10.208
-39.1921	411.854	10.2764
-39.1871	414.107	10.3447
-39.1806	418.82	10.4131
-39.1755	422.8175	10.4814
-39.1698	426.9743	10.5498
-39.1639	426.936	10.6182
-39.1589	428.597	10.6865
-39.1533	427.016	10.7549
-39.146	429.164	10.8232
-39.1412	428.689	10.8916
-39.1342	428.246	10.96
-39.1294	430.548	11.02832
-39.1236	433.452	11.09668
-39.1179	435.817	11.165
-39.1125	438.968	11.2334
-39.1077	441.585	11.3018
-39.1003	440.696	11.3701
-39.0952	441.186	11.4385
-39.0898	442.359	11.5068
-39.0838	438.611	11.5752
-39.0775	439.67	11.6436
-39.0741	439.928	11.7119
-39.0661	439.621	11.7803
-39.061	443.7644	11.8486
-39.05616	446.757	11.917
-39.0493	446.3613	11.9854
-39.0447	446.013	12.0537
-39.0379	447.2478	12.12207
-39.03299	449.938	12.19043
-39.0274	448.619	12.2588
-39.0209	446.0849	12.3271
-39.016	445.043	12.3955
-39.0099	442.8154	12.4639
-39.0048	445.997	12.5322
-38.99828	449.41	12.6006
-38.9936	447.165	12.6689
-38.9869	447.111	12.7373
-38.9814	451.039	12.8057
-38.9764	452.344	12.874
-38.9699	447.565	12.9424
-38.9641	445.932	13.0107
-38.9572	444.107	13.0791
-38.9527	443.5751	13.1475
-38.9474	441.305	13.21582
-38.9413	442.632	13.28418
-38.9349	443.745	13.3525
-38.9314	442.3439	13.4209
-38.9251	446.1369	13.4893
-38.9199	448.116	13.5576
-38.9122	444.034	13.626
-38.9056	442.628	13.6943
-38.9009	440.382	13.7627
-38.8962	436.603	13.8311
-38.8897	435.485	13.8994
-38.8839	438.026	13.9678
-38.8789	435.052	14.0361
-38.8719	433.3364	14.1045
-38.86718	438.929	14.1729
-38.86269	439.928	14.2412
-38.8562	438.882	14.30957
-38.8504	437.411	14.37793
-38.8442	436.833	14.4463
-38.8382	434.175	14.5146
-38.833	430.942	14.583
-38.8272	431.838	14.6514
-38.8218	427.215	14.7197
-38.8158	428.23	14.7881
-38.8115	432.515	14.8564
-38.80505	436.866	14.9248
-38.8	434.634	14.9932
-38.7944	434.119	15.0615
-38.7886	434.156	15.1299
-38.7823	431.46	15.1982
-38.7758	429.617	15.2666
-38.7707	428.794	15.335
-38.7648	423.775	15.40332
-38.7594	424.788	15.47168
-38.7533	428.085	15.54
-38.7471	432.782	15.6084
-38.7413	432.277	15.6768
-38.7369	431.508	15.7451
-38.7313	431.4397	15.8135
-38.7245	430.483	15.8818
-38.7196	428.8154	15.9502
-38.7139	424.33	16.0186
-38.7085	422.417	16.0869
-38.7031	421.346	16.1553
-38.697	425.623	16.2236
-38.6916	427.394	16.292
-38.6858	429.268	16.3604
-38.6786	430.761	16.4287
-38.6745	430.42	16.49707
-38.6681	429.77	16.56543
-38.6633	427.689	16.6338
-38.6573	423.946	16.7021
-38.6516	420.738	16.7705
-38.6462	419.852	16.8389
-38.6398	423.838	16.9072
-38.6342	424.953	16.9756
-38.6293	428.248	17.0439
-38.6227	428.181	17.1123
-38.6174	426.462	17.1807
-38.6113	428.889	17.249
-38.60516	428.158	17.3174
-38.5995	423.7601	17.3857
-38.595	419.206	17.4541
-38.5887	419.091	17.5225
-38.5827	421.518	17.59082
-38.5776	420.632	17.65918
-38.5718	423.671	17.7275
-38.5658	426.865	17.7959
-38.5602	424.482	17.8643
-38.5547	427.571	17.9326
-38.5482	428.291	18.001
-38.5435	423.28	18.0693
-38.5365	417.672	18.1377
-38.5307	419.288	18.2061
-38.52354	421.2966	18.2744
-38.5193	418.995	18.3428
-38.5137	420.7337	18.4111
-38.50956	425.914	18.4795
-38.5029	423.28	18.5479
-38.4971	427.9321	18.6162
-38.4918	427.121	18.68457
-38.486	424.934	18.75293
-38.4798	418.45	18.8213
-38.4746	420.601	18.8896
-38.4693	420.829	18.958
-38.46312	419.287	19.0264
-38.4568	419.308	19.0947
-38.4519	422.588	19.1631
[...]
-38.2138	416.227	22.0146
-38.2117	418.381	22.0439
-38.2092	415.797	22.0732
-38.2071	417.062	22.1025
-38.2029	418.604	22.1318
-38.2023	416.83	22.1611
-38.198	420.99	22.19043
-38.19664	415.363	22.2197
-38.1942	422.077	22.249
-38.1921	413.196	22.27832
-38.1898	423.257	22.3076
-38.1869	413.937	22.3369
-38.18512	422.443	22.3662
-38.1819	415.31	22.3955
-38.1794	422.844	22.4248
-38.1778	413.57	22.4541
-38.17458	420.023	22.4834
-38.17289	418.997	22.5127
-38.1698	421.388	22.542
-38.1672	416.8826	22.5713
-38.1651	418.583	22.6006
-38.1632	420.044	22.6299
-38.16	416.6994	22.65918
-38.1571	417.784	22.6885
-38.15575	415.45	22.7178
-38.1545	423.452	22.74707
-38.1506	412.537	22.7764
-38.1478	417.736	22.8057
-38.1457	414.843	22.835
-38.142	422.698	22.8643
-38.1409	414.181	22.8936
-38.1385	416.918	22.9229
-38.1358	416.323	22.9521
-38.1339	416.984	22.9814
-38.1304	416.032	23.0107
-38.1286	413.208	23.04
-38.1256	421.219	23.0693
-38.1228	415.404	23.0986
-38.1211	418.181	23.12793
-38.1203	414.469	23.1572
-38.1167	419.335	23.1865
-38.1133	414.891	23.21582
-38.1125	421.089	23.2451
-38.1086	415.287	23.2744
-38.10648	418.894	23.3037
-38.1036	412.57	23.333
-38.1019	417.765	23.3623
-38.0995	417.744	23.3916
-38.097	417.683	23.4209
-38.0937	418.187	23.4502
-38.0919	420.091	23.4795
-38.0895	417.696	23.5088
-38.0872	411.485	23.5381
-38.0852	420.196	23.5674
-38.0821	415.534	23.59668
-38.0792	421.629	23.626
-38.0759	408.358	23.6553
-38.0746	419.634	23.68457
-38.072	413.011	23.7139
-38.0704	419.652	23.7432
-38.0668	410.199	23.7725
-38.0651	422.153	23.8018
-38.062	414.468	23.8311
-38.0608	416.431	23.8604
-38.057	410.486	23.8896
-38.0559	418.462	23.9189
-38.0528	415.759	23.9482
-38.0515	414.275	23.9775
-38.0473	414.484	24.0068
-38.045	412.571	24.0361
-38.0438	416.741	24.06543
-38.0399	410.982	24.0947
-38.0388	418.223	24.124
-38.0359	412.559	24.15332
-38.0341	417.56	24.1826
-38.0314	411.13	24.2119
-38.0288	418.772	24.2412
-38.0267	410.04	24.2705
-38.024	417.23	24.2998
-38.0206	413.44	24.3291
-38.0188	416.081	24.3584
-38.0159	410.429	24.3877
-38.0131	414.095	24.417
-38.01178	414.413	24.4463
-38.0095	413.598	24.4756
-38.0061	414.396	24.5049
-38.0047	411.568	24.53418
-38.0011	417.189	24.5635
-38	409.973	24.5928
-37.99646	412.228	24.62207
-37.99435	409.944	24.6514
-37.9921	418.312	24.6807
-37.9882	408.875	24.71
-37.98764	411.895	24.7393
-37.985	409.707	24.7686
-37.98267	413.663	24.7979
-37.9797	410.388	24.8271
-37.9771	409.6478	24.8564
-37.9755	413.152	24.8857
-37.9726	411.687	24.915
-37.9698	410.4053	24.9443
-37.9677	404.571	24.9736
-37.9651	412.535	25.00293
-37.9623	406.263	25.0322
-37.959	411.9382	25.0615
-37.9574	402.326	25.09082
-37.9555	411.433	25.1201
-37.9539	402.492	25.1494
-37.9489	408.511	25.1787
-37.9477	400.662	25.208
-37.9459	404.762	25.2373
-37.94297	389.557	25.2666
-37.9383	-51.7909	25.2959
-37.9363	-39.8285	25.3252
-37.9354	-43.5984	25.3545
-37.9324	-38.3698	25.3838
-37.9302	-40.2593	25.4131
-37.9277	-36.1645	25.4424
-37.9258	-45.8577	25.47168
-37.9237	-39.0411	25.501
-37.9203	-44.4421	25.5303
-37.9182	-35.4632	25.55957
-37.9148	-45.9064	25.5889
-37.914	-34.7604	25.6182
-37.9109	-44.1969	25.6475
-37.9092	-38.7772	25.6768
-37.9072	-47.5749	25.7061
-37.9025	-38.6011	25.7354
-37.8999	-40.6265	25.7646
-37.8992	-40.0545	25.7939
-37.8961	-44.287	25.8232
-37.8943	-39.5005	25.8525
-37.891	-39.2188	25.8818
-37.8888	-44.2335	25.9111
-37.8865	-40.7545	25.94043
-37.8838	-41.247	25.9697
-37.8822	-37.4648	25.999
-37.8795	-46.5978	26.02832
-37.8758	-40.3208	26.0576
-37.87402	-43.2414	26.0869
-37.872	-38.421	26.1162
-37.8704	-44.3631	26.1455
-37.8663	-38.9644	26.1748
-37.864	-42.9483	26.2041
-37.8625	-45.8475	26.2236

File: 0.254_hd_dimension_typeiv_090_r(6).dat
MTS793|BTW|ENU|1|2|.|/|:|1|0|0|A

Data Header:			0.254_hd_dimension_typeiv_090_r0			Time:	20.0178	s	4/14/2019 12:34:26 AM
Data Acquisition:	Timed
Station Name:	ft40.cfg
Test File Name:	monotonic_0.2540_typeiv_hd_090_dimension.tst
Displacement	Force	Running Time
mm	N	s
-40.04158	-190.726	0.0227051
-40.0386	-191.417	0.0910645
-40.0339	-187.035	0.159424
-40.02877	-181.761	0.2277832
-40.0221	-181.949	0.296143
-40.0172	-177.76	0.364502
-40.0115	-168.379	0.432861
-40.0067	-164.14	0.5012207
-40.0006	-163.564	0.56958
-39.9939	-158.794	0.637939
-39.989	-155.795	0.706299
-39.9824	-153.739	0.7746582
-39.9759	-151.994	0.843018
-39.9715	-147.662	0.911377
-39.9654	-149.341	0.979736
-39.9609	-146.066	1.0481
-39.9542	-136.499	1.11646
-39.949	-131.958	1.18481
-39.94371	-128.134	1.25317
-39.93766	-123.939	1.32153
-39.9321	-120.936	1.38989
-39.9254	-120.242	1.458252
-39.9202	-116.346	1.52661
-39.9147	-113.797	1.59497
-39.909	-115.039	1.66333
-39.9037	-112.215	1.73169
-39.8976	-101.886	1.80005
-39.8921	-98.5502	1.86841
-39.8862	-95.5734	1.93677
-39.8805	-90.09314	2.005127
-39.8747	-87.1046	2.07349
-39.8693	-84.75174	2.14185
-39.8641	-83.8706	2.21021
-39.8581	-80.7448	2.27856
-39.8529	-80.3283	2.34692
-39.8465	-77.8962	2.41528
-39.8411	-68.6609	2.48364
-39.8348	-65.4848	2.552002
-39.8285	-59.8371	2.62036
-39.823	-56.2542	2.68872
-39.81797	-54.0071	2.75708
-39.8115	-49.932	2.82544
-39.8058	-45.9625	2.8938
-39.8002	-47.0409	2.96216
-39.7947	-45.6298	3.03052
-39.7881	-44.313	3.098877
-39.784	-38.0125	3.16724
-39.77858	-34.34911	3.2356
-39.7715	-28.6894	3.30396
-39.7671	-23.5464	3.37231
-39.7609	-20.3933	3.44067
-39.7546	-15.4118	3.50903
-39.7493	-10.4747	3.57739
-39.7431	-13.3914	3.645752
-39.7383	-13.3015	3.71411
-39.7318	-9.30925	3.78247
-39.7262	-5.06508	3.85083
-39.7216	-2.09234	3.91919
-39.7142	2.27218	3.98755
-39.71	8.173	4.05591
-39.7041	12.07856	4.12427
-39.69735	18.2389	4.192627
-39.69257	21.1689	4.26099
-39.6862	20.8306	4.32935
-39.6813	20.1907	4.39771
-39.6746	24.432	4.46606
-39.6692	28.3067	4.53442
-39.6639	28.98921	4.60278
-39.6574	36.0389	4.67114
-39.6526	39.9726	4.739502
-39.6471	44.1874	4.80786
-39.642	50.2443	4.87622
-39.6355	55.58572	4.94458
-39.6306	53.9885	5.01294
-39.6254	55.1219	5.0813
-39.6184	61.3947	5.14966
-39.613	61.6719	5.21802
-39.6063	63.0807	5.286377
-39.6009	66.2394	5.35474
-39.5965	72.7457	5.4231
-39.5895	76.7632	5.49146
-39.5857	83.55027	5.55981
-39.5786	88.1026	5.62817
-39.5737	88.8819	5.69653
-39.5663	87.9194	5.76489
-39.5613	95.2704	5.833252
-39.5547	94.7357	5.90161
-39.5501	95.1693	5.96997
-39.5439	99.6047	6.03833
-39.53981	103.815	6.10669
-39.5336	108.542	6.17505
-39.5265	114.092	6.24341
-39.521	120.5112	6.31177
-39.5156	121.227	6.380127
-39.5101	122.2999	6.44849
-39.5042	127.419	6.51685
-39.4985	129.0542	6.58521
-39.49337	127.9593	6.65356
-39.487	131.105	6.72192
-39.4812	135.249	6.79028
-39.4753	139.035	6.85864
-39.47	143.459	6.927002
-39.4644	150.869	6.99536
-39.4584	150.985	7.06372
-39.4543	153.739	7.13208
-39.448	160.83	7.20044
-39.4402	161.438	7.2688
-39.4367	160.961	7.33716
-39.4301	164.765	7.40552
-39.4244	166.315	7.473877
-39.4196	169.881	7.54224
-39.4132	174.803	7.6106
-39.40712	180.894	7.67896
-39.4021	182.227	7.74731
-39.3956	185.285	7.81567
-39.3904	191.032	7.88403
-39.3847	193.502	7.95239
-39.3789	193.0024	8.020752
-39.3735	196.276	8.08911
-39.368	195.879	8.15747
-39.3625	200.385	8.22583
-39.3562	206.941	8.29419
-39.3505	208.288	8.36255
-39.3446	210.997	8.43091
-39.3397	217.173	8.49927
-39.3339	222.165	8.567627
-39.3274	223.686	8.63599
-39.3224	226.111	8.70435
-39.3168	227.706	8.77271
-39.3114	228.428	8.84106
-39.3055	231.92	8.90942
-39.2992	235.103	8.97778
-39.2942	235.975	9.04614
-39.2876	241.199	9.114502
-39.28215	246.43	9.18286
-39.2768	251.428	9.25122
-39.2715	253.894	9.31958
-39.2657	257.308	9.38794
-39.2597	258.0033	9.4563
-39.2547	258.228	9.52466
-39.2479	261.1098	9.59302
-39.2419	264.336	9.661377
-39.23748	262.596	9.72974
-39.2314	267.746	9.7981
-39.2257	273.898	9.86646
-39.22047	279.91	9.93481
-39.2127	281.587	10.0032
-39.2093	285.187	10.0715
-39.2029	287.711	10.1399
-39.1963	287.153	10.2083
-39.1913	289.802	10.2766
-39.1856	292.21	10.345
-39.1794	290.764	10.41333
-39.17384	291.538	10.4817
-39.1675	300.867	10.55
-39.1632	304.903	10.6184
-39.15678	308.286	10.6868
-39.15255	313.2052	10.7551
-39.14761	313.632	10.8235
-39.1407	313.707	10.8918
-39.1347	316.266	10.9602
-39.1279	317.09	11.0286
-39.1229	315.241	11.0969
-39.116	316.988	11.1653
-39.1109	326.381	11.2336
-39.1056	330.387	11.302
-39.0994	330.323	11.3704
-39.094	337.638	11.4387
-39.0893	340.1568	11.50708
-39.0829	339.749	11.5754
-39.0777	342.681	11.6438
-39.0715	344.052	11.7122
-39.0657	341.719	11.7805
-39.0616	340.782	11.8489
-39.0551	347.89	11.9172
-39.048	350.606	11.9856
-39.0434	353.445	12.054
-39.0375	358.415	12.1223
-39.0325	360.431	12.1907
-39.0273	363.089	12.259
-39.0203	365.34	12.3274
-39.0142	365.703	12.3958
-39.008	362.755	12.4641
-39.0041	363.963	12.5325
-38.9973	368.861	12.60083
-38.99202	371.4523	12.6692
-38.9868	372.169	12.7375
-38.9804	378.498	12.8059
-38.9739	382.514	12.8743
-38.9685	386.597	12.9426
-38.9633	385.022	13.011
-38.9566	387.635	13.0793
-38.9523	383.292	13.1477
-38.9465	384.331	13.2161
-38.9412	389.489	13.2844
-38.9355	388.2	13.3528
-38.9297	390.367	13.4211
-38.9225	394.327	13.4895
-38.9183	398.526	13.5579
-38.9127	403.031	13.6262
-38.906	404.568	13.69458
-38.9007	403.956	13.7629
-38.89447	402.568	13.8313
-38.8896	403.967	13.8997
-38.8838	405.865	13.968
-38.87809	404.369	14.0364
-38.8729	407.073	14.1047
-38.8662	410.068	14.1731
-38.8601	414.046	14.2415
-38.8551	417.518	14.3098
-38.8493	420.82	14.3782
-38.8439	419.5336	14.4465
-38.8386	420.043	14.5149
-38.8325	420.72	14.5833
-38.8267	420.716	14.6516
-38.8219	417.252	14.72
-38.8157	420.318	14.78833
-38.8096	421.123	14.8567
-38.8044	423.61	14.925
-38.79871	429.661	14.9934
-38.7924	432.543	15.0618
-38.7874	432.727	15.1301
-38.7801	431.426	15.1985
-38.7749	434.391	15.2668
-38.76952	433.233	15.3352
-38.7648	429.344	15.4036
-38.7577	431.597	15.4719
-38.7538	432.945	15.5403
-38.7474	434.34	15.6086
-38.7416	437.999	15.677
-38.7356	440.5976	15.7454
-38.7304	438.682	15.8137
-38.7233	439.9379	15.88208
-38.7183	444.748	15.9504
-38.713	440.969	16.0188
-38.7075	440.254	16.0872
-38.70179	440.509	16.1555
-38.6957	439.8063	16.2239
-38.6905	440.427	16.2922
-38.6839	445.381	16.3606
-38.6783	445.452	16.429
-38.6736	445.305	16.4973
-38.6674	446.692	16.5657
-38.662	451.085	16.634
-38.6553	450.2081	16.7024
-38.6506	445.629	16.7708
-38.6446	447.343	16.8391
-38.6393	444.565	16.9075
-38.6326	444.506	16.97583
-38.6282	446.315	17.0442
-38.6212	448.226	17.1125
-38.6161	446.025	17.1809
-38.61	449.118	17.2493
-38.6051	453.552	17.3176
-38.599	450.814	17.386
-38.5935	449.236	17.4543
-38.5872	449.384	17.5227
-38.5823	445.698	17.5911
-38.5756	445.245	17.6594
-38.5702	446.921	17.7278
-38.5656	446.553	17.7961
-38.5584	446.046	17.8645
-38.55386	449.386	17.9329
-38.5486	452.898	18.0012
-38.5424	453.422	18.06958
-38.5375	450.307	18.1379
-38.5301	449.8078	18.2063
-38.5244	447.172	18.2747
-38.519	447.627	18.343
-38.5136	443.978	18.4114
-38.5074	444.643	18.4797
-38.503	444.967	18.5481
-38.49728	446.455	18.6165
-38.49054	448.926	18.6848
-38.4848	449.631	18.7532
-38.4794	450.158	18.8215
-38.4742	447.7681	18.8899
-38.469	445.453	18.9583
-38.4623	443.618	19.0266
[...]
-38.09877	434.585	23.3918
-38.0961	430.744	23.4211
-38.0938	436.936	23.4504
-38.0914	427.207	23.4797
-38.0887	434.694	23.509
-38.0864	428.338	23.53833
-38.0845	436.495	23.5676
-38.0823	426.73	23.5969
-38.0787	434.9064	23.6262
-38.0761	427.618	23.6555
-38.0736	433.052	23.6848
-38.0712	425.685	23.7141
-38.0698	432.238	23.7434
-38.0675	431.719	23.7727
-38.0639	432.415	23.802
-38.0618	428.548	23.8313
-38.0596	430.304	23.8606
-38.0573	433.531	23.8899
-38.054	427.328	23.9192
-38.0514	431.94	23.9485
-38.0505	428.22	23.9778
-38.0474	435.583	24.00708
-38.0444	425.38	24.0364
-38.0434	429.918	24.0657
-38.0403	428.075	24.095
-38.0371	431.269	24.1243
-38.03458	427.941	24.1536
-38.033	432.452	24.1829
-38.0306	428.391	24.2122
-38.0284	429.23	24.2415
-38.0245	428.914	24.2708
-38.0214	428.694	24.3
-38.0193	432.044	24.3293
-38.0174	426.262	24.3586
-38.0146	430.654	24.3879
-38.0136	425.7	24.4172
-38.00972	430.013	24.4465
-38.0092	424.777	24.47583
-38.0062	432.529	24.5051
-38.0031	426.9433	24.5344
-38	430.255	24.5637
-37.9976	425.73	24.593
-37.9954	431.008	24.6223
-37.9946	425.775	24.6516
-37.9907	427.114	24.6809
-37.9892	429.921	24.7102
-37.9869	428.3364	24.7395
-37.9844	429.089	24.7688
-37.9807	421.4577	24.7981
-37.9785	431.187	24.8274
-37.9766	423.878	24.8567
-37.9734	430.214	24.886
-37.9713	421.553	24.9153
-37.9698	431.856	24.94458
-37.967	422.076	24.9739
-37.9642	427.138	25.0032
-37.9611	422.921	25.0325
-37.9593	431.906	25.0618
-37.95612	423.461	25.0911
-37.9536	425.392	25.1204
-37.9513	423.408	25.1497
-37.9496	426.341	25.179
-37.9466	424.815	25.2083
-37.9453	424.506	25.2375
-37.942	428.926	25.2668
-37.94051	423.524	25.2961
-37.9368	427.963	25.3254
-37.9352	420.037	25.3547
-37.9329	429.123	25.384
-37.9299	419.232	25.41333
-37.927	427.052	25.4426
-37.9254	420.15	25.4719
-37.9233	426.39	25.5012
-37.9204	418.07	25.5305
-37.9182	425.953	25.5598
-37.9146	419.642	25.5891
-37.9134	421.688	25.6184
-37.9098	416.0452	25.6477
-37.9083	415.784	25.677
-37.9049	411.803	25.7063
-37.8993	-8.02341	25.7356
-37.8993	-47.1008	25.7649
-37.8965	-42.1246	25.7942
-37.8952	-35.4634	25.8235
-37.8933	-45.0781	25.8528
-37.88929	-39.1545	25.88208
-37.889	-43.7602	25.9114
-37.886	-36.9094	25.9407
-37.8826	-43.0289	25.97
-37.8809	-38.8999	25.9993
-37.8782	-40.72356	26.0286
-37.876	-41.1053	26.0579
-37.8737	-43.83651	26.0872
-37.8704	-39.6568	26.1165
-37.8679	-38.6068	26.1458
-37.8665	-41.4423	26.175
-37.8635	-38.9221	26.2043
-37.8608	-43.9022	26.2336
-37.8596	-38.0509	26.2629
-37.857	-44.363	26.2922
-37.8542	-35.9717	26.3215
-37.8527	-41.4466	26.35083
-37.8484	-39.162	26.3801
-37.8463	-44.1537	26.4094
-37.844	-38.1641	26.4387
-37.8416	-43.7051	26.468
-37.8391	-41.27803	26.4973
-37.83625	-40.83099	26.5266
-37.83411	-38.9766	26.5559
-37.8316	-41.6343	26.5852
-37.8283	-46.2305	26.6145
-37.82708	-39.8741	26.6438
-37.8245	-42.3409	26.6731
-37.8225	-38.5618	26.7024
-37.82016	-44.7611	26.7317
-37.8172	-35.7311	26.761
-37.8155	-44.3001	26.7903
-37.8121	-37.9545	26.81958
-37.81102	-46.7663	26.8489
-37.8075	-36.0901	26.8782
-37.8053	-45.0279	26.9075
-37.8027	-38.5865	26.9368
-37.8	-45.14901	26.9661
-37.7982	-40.3565	26.9954
-37.7952	-42.3642	27.0247
-37.7942	-41.9721	27.054
-37.7912	-38.9629	27.0833
-37.7881	-40.54018	27.1125
-37.785	-38.9641	27.1418
-37.7828	-44.29953	27.1711
-37.7807	-37.3884	27.2004
-37.7785	-44.0014	27.2297
-37.776	-36.4369	27.259
-37.7741	-43.6293	27.28833
-37.7718	-36.7259	27.3176
-37.77013	-47.54277	27.3469
-37.7664	-37.7206	27.3762
-37.7643	-43.7131	27.4055
-37.7606	-38.5321	27.4348
-37.7591	-44.87904	27.4641
-37.7569	-39.2618	27.4934
-37.7551	-40.3734	27.5227
-37.7516	-42.322	27.552
-37.7502	-36.8907	27.5618