Folder: Stress_Strain_Analysis_Tools/data/processed_data_files/tensile (part 3)

File: 0.254_hd_dimension_typei_090_r(5).dat
MTS793|BTW|ENU|1|2|.|/|:|1|0|0|A

Data Header:			0.254_hd_dimension_typei_090_r0			Time:	20.0181	s	4/15/2019 3:41:17 PM
Data Acquisition:	Timed
Station Name:	ft40.cfg
Test File Name:	monotonic_0.2540_typei_hd_090_dimension.tst
Displacement	Force	Running Time
mm	N	s
9.9802	-163.444	0.0224609
9.98244	-164.737	0.0908203
9.98809	-161.273	0.15918
9.99412	-155.739	0.227539
10.0003	-151.791	0.295898
10.006	-151.487	0.364258
10.0112	-151.94	0.432617
10.0171	-151.201	0.500977
10.023	-149.357	0.569336
10.0287	-149.0885	0.637695
10.03357	-139.63	0.706055
10.0387	-133.844	0.774414
10.0447	-130.29	0.842773
10.0498	-122.7607	0.911133
10.0559	-120.196	0.979492
10.0622	-117.074	1.04785
10.0673	-119.355	1.11621
10.07356	-116.041	1.18457
10.0795	-118.246	1.25293
10.0855	-114.577	1.32129
10.09	-110.256	1.38965
10.09617	-102.415	1.45801
10.1013	-98.8629	1.52637
10.1082	-90.55471	1.59473
10.1141	-86.8603	1.66309
10.1188	-83.34375	1.73145
10.1249	-80.7274	1.7998
10.13	-81.183	1.86816
10.1366	-82.37854	1.93652
10.1416	-80.3522	2.00488
10.1476	-75.5643	2.07324
10.1531	-69.0862	2.1416
10.159	-66.6304	2.20996
10.1638	-57.90472	2.27832
10.16935	-52.5394	2.34668
10.1767	-49.8605	2.41504
10.1816	-46.1078	2.4834
10.1875	-44.7395	2.55176
10.1933	-45.573	2.62012
10.1984	-47.2047	2.68848
10.205	-42.2535	2.75684
10.2105	-37.5066	2.8252
10.2156	-35.8956	2.89355
10.2215	-25.1275	2.96191
10.2273	-18.5595	3.03027
10.2326	-16.3545	3.09863
10.2386	-11.8002	3.16699
10.2445	-9.33274	3.23535
10.24843	-9.57306	3.30371
10.2547	-11.2135	3.37207
10.2613	-6.20394	3.44043
10.2662	-4.77596	3.50879
10.2726	-2.51748	3.57715
10.2785	5.14145	3.64551
10.2848	12.9045	3.71387
10.2903	16.99486	3.78223
10.2945	22.3486	3.85059
10.3012	28.55756	3.91895
10.30674	27.1298	3.9873
10.31157	26.3183	4.05566
10.3183	28.24732	4.12402
10.3238	35.6231	4.19238
10.3292	33.1875	4.26074
10.3349	38.1237	4.3291
10.3411	46.2948	4.39746
10.3467	51.348	4.46582
10.3515	57.7413	4.53418
10.3569	61.991	4.60254
10.3642	62.01828	4.6709
10.36901	63.9878	4.73926
10.3752	64.7909	4.80762
10.3814	68.7946	4.87598
10.387	68.887	4.94434
10.3921	73.2926	5.0127
10.3977	77.0289	5.08105
10.4046	84.2346	5.14941
10.4089	90.9797	5.21777
10.4149	96.9143	5.28613
10.4203	100.155	5.35449
10.4266	99.6153	5.42285
10.4328	100.774	5.49121
10.4378	106.357	5.55957
10.44234	104.938	5.62793
10.44852	109.4374	5.69629
10.4546	114.274	5.76465
10.4603	116.377	5.83301
10.4653	123.091	5.90137
10.4723	131.784	5.96973
10.47655	133.892	6.03809
10.4837	136.103	6.10645
10.4898	138.137	6.1748
10.4949	144.037	6.24316
10.50027	139.909	6.31152
10.5065	143.023	6.37988
10.5124	146.556	6.44824
10.51725	149.884	6.5166
10.52332	156.909	6.58496
10.52935	164.315	6.65332
10.5344	166.4	6.72168
10.54	169.496	6.79004
10.54612	174.5181	6.8584
10.5509	179.005	6.92676
10.5576	176.475	6.99512
10.5636	175.803	7.06348
10.569	182.102	7.13184
10.5746	183.979	7.2002
10.5804	187.249	7.26855
10.5852	197.955	7.33691
10.5915	203.759	7.40527
10.5971	203.8121	7.47363
10.6035	207.203	7.54199
10.609	214.126	7.61035
10.6135	214.543	7.67871
10.6212	212.3457	7.74707
10.6249	216.459	7.81543
10.6306	218.763	7.88379
10.6363	222.201	7.95215
10.6426	228.9931	8.02051
10.6485	233.564	8.08887
10.6548	237.936	8.15723
10.6599	241.723	8.22559
10.6657	249.062	8.29395
10.6709	251.1808	8.3623
10.6771	251.311	8.43066
10.6829	251.613	8.49902
10.6878	253.524	8.56738
10.6939	255.862	8.63574
10.6989	261.699	8.7041
10.70564	266.195	8.77246
10.7116	269.879	8.84082
10.7154	276.236	8.90918
10.7226	284.339	8.97754
10.7282	286.2	9.0459
10.7334	285.532	9.11426
10.7395	287.643	9.18262
10.7457	287.141	9.25098
10.7508	288.4585	9.31934
10.7566	294.886	9.3877
10.7626	299.485	9.45605
10.767	302.295	9.52441
10.7734	307.665	9.59277
10.7801	316.569	9.66113
10.7848	318.944	9.72949
10.7902	321.642	9.79785
10.7971	322.914	9.86621
10.8023	322.184	9.93457
10.8076	322.7597	10.00293
10.81354	328.427	10.0713
10.8191	331.439	10.1396
10.8244	333.121	10.208
10.8303	337.312	10.2764
10.8361	349.538	10.3447
10.8422	354.4147	10.4131
10.8477	354.987	10.4814
10.8537	358.733	10.5498
10.8587	360.276	10.6182
10.8635	358.456	10.6865
10.8699	359.792	10.7549
10.87686	363.989	10.8232
10.8822	364.762	10.8916
10.8872	368.1416	10.96
10.8933	379.689	11.02832
10.8994	387.238	11.09668
10.9041	388.6962	11.165
10.9114	392.704	11.2334
10.9168	394.721	11.3018
10.9223	394.887	11.3701
10.92668	394.195	11.4385
10.9337	394.4935	11.5068
10.93902	396.184	11.5752
10.9451	401.989	11.6436
10.9511	409.1521	11.7119
10.9563	419.134	11.7803
10.9614	420.294	11.8486
10.9674	425.902	11.917
10.9732	428.021	11.9854
10.97881	428.625	12.0537
10.98418	429.054	12.12207
10.9895	428.234	12.19043
10.9957	428.158	12.2588
11.0015	432.59	12.3271
11.0069	439.112	12.3955
11.013	448.19	12.4639
11.019	452.498	12.5322
11.0241	458.874	12.6006
11.02994	460.833	12.6689
11.0353	461.858	12.7373
11.0413	463.474	12.8057
11.047	462.765	12.874
11.053	461.56	12.9424
11.05861	462.913	13.0107
11.0644	469.6163	13.0791
11.0703	476.164	13.1475
11.0762	480.698	13.21582
11.081	488.972	13.28418
11.0854	494.14	13.3525
11.09293	493.5611	13.4209
11.09815	497.879	13.4893
11.1035	497.731	13.5576
11.1099	494.555	13.626
11.1162	493.274	13.6943
11.1213	498.341	13.7627
11.1273	507.183	13.8311
11.1326	509.926	13.8994
11.13837	517.161	13.9678
11.1443	523.967	14.0361
11.14831	525.53	14.1045
11.15667	528.458	14.1729
11.161	530.679	14.2412
11.1673	529.254	14.30957
11.17252	524.9751	14.37793
11.1776	527.024	14.4463
11.1842	536.724	14.5146
11.18914	540.2121	14.583
11.1956	545.88	14.6514
11.2015	554.23	14.7197
11.2072	557.222	14.7881
11.2121	559.477	14.8564
11.2184	561.334	14.9248
11.223	561.164	14.9932
11.2284	557.745	15.0615
11.23538	558.243	15.1299
11.2413	564.89	15.1982
11.2462	569.012	15.2666
11.2514	573.804	15.335
11.2583	580.502	15.40332
11.26264	586.667	15.47168
11.2688	590.384	15.54
11.2752	593.395	15.6084
11.28093	593.576	15.6768
11.2858	590.178	15.7451
11.2922	590.465	15.8135
11.2975	593.602	15.8818
11.3027	596.101	15.9502
11.3085	601.678	16.0186
11.3144	607.5022	16.0869
11.3205	612.3	16.1553
11.3255	619.952	16.2236
11.3316	623.466	16.292
11.338	622.723	16.3604
11.3433	619.055	16.4287
11.3491	620.3266	16.49707
11.3553	626.169	16.56543
11.3601	623.793	16.6338
11.3657	628.268	16.7021
11.3716	636.492	16.7705
11.3778	639.104	16.8389
11.3825	646.1	16.9072
11.3892	651.145	16.9756
11.394	654.544	17.0439
11.4003	651.2149	17.1123
11.405	651.533	17.1807
11.4114	655.027	17.249
11.417	652.843	17.3174
11.4229	655.75	17.3857
11.42793	661.391	17.4541
11.4339	668.135	17.5225
11.4409	672.77	17.59082
11.4457	678.397	17.65918
11.4519	683.057	17.7275
11.4571	680.346	17.7959
11.4637	678.526	17.8643
11.4682	684.7066	17.9326
11.4743	683.327	18.001
11.4804	681.772	18.0693
11.4861	686.539	18.1377
11.4903	691.294	18.2061
11.4968	697.575	18.2744
11.5027	701.626	18.3428
11.508	709.17	18.4111
11.514	708.76	18.4795
11.5201	707.369	18.5479
11.5255	711.964	18.6162
11.53156	711.3	18.68457
11.5367	710.399	18.75293
11.5415	712.162	18.8213
11.5469	714.629	18.8896
11.5531	720.43	18.958
11.5598	726.65	19.0264
11.5658	732.538	19.0947
11.5715	734.853	19.1631
11.5762	736.1347	19.2314
11.5816	736.7785	19.2998
11.5888	738.667	19.3682
11.5942	736.624	19.4365
11.5995	736.633	19.5049
11.6049	740.837	19.5732
11.6106	743.294	19.6416
11.617	750.089	19.71
11.62249	753.597	19.77832
11.6278	755.992	19.84668
[...]
13.9721	824.061	47.9912
13.9782	824.574	48.0498
13.9828	827.727	48.1084
13.9887	828.519	48.167
13.99358	826.9	48.2256
13.9976	825.976	48.28418
14.0019	824.506	48.3428
14.0071	820.683	48.4014
14.0128	822.231	48.46
14.0171	816.802	48.5186
14.0223	817.858	48.5771
14.0264	815.65	48.6357
14.0313	815.814	48.6943
14.0368	815.755	48.75293
14.0415	817.409	48.8115
14.0461	821.28	48.8701
14.05075	821.097	48.9287
14.0565	826.505	48.9873
14.0618	822.591	49.0459
14.0666	826.687	49.1045
14.0719	825.1	49.1631
14.0761	827.707	49.22168
14.0801	821.172	49.2803
14.0852	823.29	49.3389
14.09032	815.941	49.3975
14.0953	817.155	49.4561
14.1002	813.563	49.5146
14.1051	814.953	49.5732
14.10992	811.997	49.6318
14.1157	815.023	49.69043
14.1197	816.25	49.749
14.1247	819.619	49.8076
14.1301	821.77	49.8662
14.1347	824.677	49.9248
14.1387	825.867	49.9834
14.1435	828.244	50.042
14.1496	827.579	50.1006
14.1537	825.83	50.15918
14.15876	824.787	50.2178
14.1637	821.081	50.2764
14.1688	817.681	50.335
14.1729	816.947	50.3936
14.1787	813.591	50.4521
14.1835	813.928	50.5107
14.1868	811.471	50.5693
14.19253	814.595	50.62793
14.1977	815.008	50.6865
14.2016	818.968	50.7451
14.2072	818.272	50.8037
14.2127	824.2486	50.8623
14.2177	823.751	50.9209
14.2226	822.0722	50.9795
14.2257	822.041	51.0381
14.2318	820.412	51.09668
14.2373	822.587	51.1553
14.2414	818.533	51.2139
14.2465	819.615	51.2725
14.2521	810.252	51.3311
14.255	814.648	51.3896
14.2613	809.023	51.4482
14.2668	812.786	51.5068
14.2712	808.71	51.56543
14.2768	815.782	51.624
14.2798	814.058	51.6826
14.2858	817.912	51.7412
14.2901	819.613	51.7998
14.295	821.205	51.8584
14.3	824.186	51.917
14.3057	823.538	51.9756
14.3103	823.232	52.03418
14.3141	820.496	52.0928
14.3196	821.068	52.1514
14.325	817.32	52.21
14.3297	813.841	52.2686
14.3346	811.423	52.3271
14.3398	811.704	52.3857
14.3441	810.518	52.4443
14.3495	812.449	52.50293
14.3544	815.036	52.5615
14.3591	814.767	52.6201
14.3633	819.246	52.6787
14.36864	820.0589	52.7373
14.373	821.982	52.7959
14.377	822.268	52.8545
14.384	822.665	52.9131
14.3887	820.385	52.97168
14.393	817.9704	53.0303
14.398	816.292	53.0889
14.403	811.036	53.1475
14.40823	812.462	53.2061
14.4128	808.566	53.2646
14.4172	810.088	53.3232
14.42148	807.891	53.3818
14.42781	811.301	53.44043
14.4328	806.774	53.499
14.43844	816.645	53.5576
14.4426	809.972	53.6162
14.4478	816.762	53.6748
14.4521	816.101	53.7334
14.4563	820.545	53.792
14.4609	815.986	53.8506
14.4676	818.79	53.90918
14.4704	815.037	53.9678
14.4763	812.987	54.0264
14.4808	811.362	54.085
14.4853	810.122	54.1436
14.4901	807.086	54.2021
14.4957	806.866	54.2607
14.5006	807.749	54.3193
14.5051	805.335	54.37793
14.51	809.753	54.4365
14.5149	809.938	54.4951
14.5202	812.7901	54.5537
14.5242	814.032	54.6123
14.5307	813.969	54.6709
14.53473	813.828	54.7295
14.5405	813.648	54.7881
14.54467	810.689	54.84668
14.5588	-147.36	54.9053
14.5572	-40.57032	54.9639
14.5609	-46.8154	55.0225
14.5656	-49.2198	55.0811
14.5692	-52.4417	55.1396
14.5735	-50.6822	55.1982
14.5805	-54.2623	55.2568
14.5837	-51.7799	55.31543
14.58945	-49.7653	55.374
14.5946	-49.4977	55.4326
14.5975	-42.9805	55.4912
14.6033	-46.3063	55.5498
14.6081	-40.9515	55.6084
14.6132	-43.6335	55.667
14.6185	-40.2351	55.7256
14.6228	-45.8626	55.78418
14.6286	-41.1426	55.8428
14.6323	-47.9738	55.9014
14.6373	-47.7544	55.96
14.6427	-51.1449	56.0186
14.6474	-52.2962	56.0771
14.6524	-54.4231	56.1357
14.6564	-52.5373	56.1943
14.6617	-51.8552	56.25293
14.6658	-50.4945	56.3115
14.67043	-46.3914	56.3701
14.677	-44.9438	56.4287
14.6813	-42.4206	56.4873
14.6871	-40.58744	56.5459
14.692	-37.6961	56.6045
14.6962	-40.5966	56.6631
14.7013	-40.1113	56.72168
14.7037	-53.6991	56.7607

File: 0.254_hd_dimension_typei_090_r(6).dat
MTS793|BTW|ENU|1|2|.|/|:|1|0|0|A

Data Header:			0.254_hd_dimension_typei_090_r0			Time:	20.0173	s	4/15/2019 3:43:47 PM
Data Acquisition:	Timed
Station Name:	ft40.cfg
Test File Name:	monotonic_0.2540_typei_hd_090_dimension.tst
Displacement	Force	Running Time
mm	N	s
9.97963	-140.789	0.0227051
9.980072	-139.7496	0.0910645
9.9872	-135.416	0.159424
9.99269	-129.089	0.2277832
9.99906	-122.89	0.296143
10.0041	-116.092	0.364502
10.0092	-115.995	0.432861
10.0155	-114.555	0.5012207
10.0217	-111.745	0.56958
10.0276	-109.178	0.637939
10.03322	-110.4726	0.706299
10.0386	-105.488	0.7746582
10.0432	-103.551	0.843018
10.0501	-97.762	0.911377
10.0554	-88.3078	0.979736
10.0603	-83.289	1.0481
10.0664	-82.2209	1.11646
10.07193	-78.3429	1.18481
10.0785	-73.51252	1.25317
10.0844	-73.9769	1.32153
10.0901	-73.6779	1.38989
10.09561	-69.6471	1.458252
10.0997	-67.9756	1.52661
10.1061	-65.1858	1.59497
10.1123	-56.4986	1.66333
10.11839	-48.43388	1.73169
10.1232	-46.00568	1.80005
10.129	-44.7978	1.86841
10.1361	-38.6879	1.93677
10.1411	-36.8042	2.005127
10.1459	-37.1703	2.07349
10.1522	-36.511	2.14185
10.1583	-32.1402	2.21021
10.1625	-32.9923	2.27856
10.1694	-26.6361	2.34692
10.1753	-18.3325	2.41528
10.1801	-14.53	2.48364
10.18575	-11.5729	2.552002
10.1915	-5.60939	2.62036
10.1982	-1.442024	2.68872
10.2029	-1.75113	2.75708
10.2094	-1.52169	2.82544
10.215	2.58698	2.8938
10.2199	4.17109	2.96216
10.2258	8.78799	3.03052
10.23227	16.163	3.098877
10.2376	20.4861	3.16724
10.2431	23.2609	3.2356
10.2483	31.063	3.30396
10.2546	36.3118	3.37231
10.26021	36.5591	3.44067
10.2666	38.7508	3.50903
10.2716	37.432	3.57739
10.2773	40.9785	3.645752
10.2837	44.1484	3.71411
10.28987	48.5661	3.78247
10.2952	51.97324	3.85083
10.2996	56.9953	3.91919
10.30585	65.0106	3.98755
10.3109	70.8404	4.05591
10.3171	71.9724	4.12427
10.3229	76.2686	4.192627
10.3293	77.1177	4.26099
10.3345	75.7306	4.32935
10.34092	80.4224	4.39771
10.3459	84.7456	4.46606
10.3525	86.2532	4.53442
10.3577	90.7231	4.60278
10.3633	99.5877	4.67114
10.3679	107.2361	4.739502
10.37474	108.163	4.80786
10.3808	112.881	4.87622
10.386	116.231	4.94458
10.3912	111.987	5.01294
10.3969	114.83	5.0813
10.403	120.457	5.14966
10.4075	120.154	5.21802
10.4147	123.966	5.286377
10.41954	134.185	5.35474
10.4256	140.944	5.4231
10.4313	141.418	5.49146
10.4371	147.553	5.55981
10.4423	152.631	5.62817
10.4484	150.279	5.69653
10.4537	151.211	5.76489
10.4603	155.254	5.833252
10.4649	156.496	5.90161
10.4715	156.457	5.96997
10.477	166.869	6.03833
10.4826	177.225	6.10669
10.48805	179.814	6.17505
10.4935	183.04	6.24341
10.499	190.116	6.31177
10.5045	189.459	6.380127
10.5103	190.057	6.44849
10.5171	192.076	6.51685
10.52286	192.627	6.58521
10.52827	192.899	6.65356
10.5337	200.138	6.72192
10.5406	208.008	6.79028
10.5455	212.488	6.85864
10.5498	217.61	6.927002
10.5562	223.261	6.99536
10.5631	224.416	7.06372
10.5675	227.639	7.13208
10.573	228.579	7.20044
10.5794	226.51	7.2688
10.58525	229.0914	7.33716
10.5912	235.855	7.40552
10.5967	240.947	7.473877
10.6024	246.176	7.54224
10.608	252.897	7.6106
10.6135	257.432	7.67896
10.6193	259.292	7.74731
10.6251	262.868	7.81567
10.6308	265.049	7.88403
10.6358	263.513	7.95239
10.6419	261.182	8.020752
10.6477	267.093	8.08911
10.6536	273.781	8.15747
10.6582	279.166	8.22583
10.6651	286.348	8.29419
10.6697	293.028	8.36255
10.677	294.69	8.43091
10.6815	299.903	8.49927
10.6882	303.0881	8.567627
10.69283	300.3624	8.63599
10.6995	297.92	8.70435
10.7044	300.969	8.77271
10.7111	307.881	8.84106
10.7161	310.512	8.90942
10.7217	316.555	8.97778
10.7277	324.428	9.04614
10.7337	327.219	9.114502
10.7385	334.252	9.18286
10.7451	337.868	9.25122
10.7504	336.527	9.31958
10.756	332.216	9.38794
10.7606	336.156	9.4563
10.7665	342.239	9.52466
10.7732	341.785	9.59302
10.7788	346.9314	9.661377
10.784	356.426	9.72974
10.7903	359.91	9.7981
10.7948	366.086	9.86646
10.8013	372.33	9.93481
10.807	371.883	10.0032
10.813	369.699	10.0715
10.8183	370.593	10.1399
10.8233	375.683	10.2083
10.8299	376.4765	10.2766
10.8359	379.01	10.345
10.84104	386.969	10.41333
10.8467	394.304	10.4817
10.8528	400.008	10.55
10.8583	406.94	10.6184
10.8642	408.721	10.6868
10.8694	405.8324	10.7551
10.87544	406.58	10.8235
10.8812	409.812	10.8918
10.8865	408.699	10.9602
10.8916	412.691	11.0286
10.8988	419.314	11.0969
10.9041	422.616	11.1653
10.91	431.514	11.2336
10.9155	436.629	11.302
10.9211	441.02	11.3704
10.9264	439.325	11.4387
10.9336	441.6033	11.50708
10.939	442.978	11.5754
10.9435	440.568	11.6438
10.9493	446.101	11.7122
10.9543	449.942	11.7805
10.9609	452.843	11.8489
10.9667	461.897	11.9172
10.97175	469.608	11.9856
10.9785	472.708	12.054
10.9846	472.769	12.1223
10.9895	476.003	12.1907
10.99568	479.2608	12.259
10.99976	476.255	12.3274
11.0068	478.323	12.3958
11.013	481.5694	12.4641
11.01696	483.918	12.5325
11.0237	490.55	12.60083
11.0299	499.07	12.6692
11.0349	505.223	12.7375
11.0416	504.325	12.8059
11.0459	508.821	12.8743
11.0515	512.763	12.9426
11.0574	509.1088	13.011
11.0638	509.984	13.0793
11.0692	514.495	13.1477
11.0739	514.924	13.2161
11.0805	520.8667	13.2844
11.0856	527.463	13.3528
11.0925	535.52	13.4211
11.0979	537.597	13.4895
11.1036	538.648	13.5579
11.10923	545.453	13.6262
11.1137	545.537	13.69458
11.1209	542.281	13.7629
11.1264	544.931	13.8313
11.1318	546.572	13.8997
11.1371	550.54	13.968
11.1437	555.591	14.0364
11.1484	564.016	14.1047
11.1543	566.583	14.1731
11.1607	569.7052	14.2415
11.16604	576.03	14.3098
11.1715	576.769	14.3782
11.1776	576.565	14.4465
11.1833	576.644	14.5149
11.18973	575.458	14.5833
11.1946	578.7818	14.6516
11.2004	586.28	14.72
11.2058	590.449	14.78833
11.2116	594.343	14.8567
11.2166	598.943	14.925
11.2232	608.022	14.9934
11.2291	608.304	15.0618
11.2336	608.943	15.1301
11.241	609.863	15.1985
11.2463	607.968	15.2668
11.2514	609.813	15.3352
11.257	614.436	15.4036
11.2631	618.746	15.4719
11.26901	622.644	15.5403
11.2749	628.569	15.6086
11.2795	636.883	15.677
11.286	638.076	15.7454
11.2906	639.237	15.8137
11.2981	640.6377	15.88208
11.3034	640.065	15.9504
11.3079	639.548	16.0188
11.3139	643.195	16.0872
11.3192	647.357	16.1555
11.3256	648.6	16.2239
11.3308	654.219	16.2922
11.3375	663.374	16.3606
11.3424	666.586	16.429
11.3484	667.947	16.4973
11.3534	672.512	16.5657
11.35843	670.343	16.634
11.36574	669.12	16.7024
11.371	670.791	16.7708
11.3764	673.713	16.8391
11.3826	674.634	16.9075
11.3868	679.327	16.97583
11.3943	689.531	17.0442
11.39992	694.007	17.1125
11.4058	695.416	17.1809
11.4097	697.863	17.2493
11.4174	700.733	17.3176
11.4215	698.201	17.386
11.4277	699.475	17.4543
11.4334	701.251	17.5227
11.4403	700.91	17.5911
11.444	702.646	17.6594
11.4502	712.429	17.7278
11.4561	719.162	17.7961
11.4621	721.554	17.8645
11.4683	726.0882	17.9329
11.4743	725.76	18.0012
11.4789	726.73	18.06958
11.4847	726.302	18.1379
11.4908	724.671	18.2063
11.4961	724.793	18.2747
11.5017	726.742	18.343
11.5081	734.744	18.4114
11.5139	741.242	18.4797
11.5187	745.316	18.5481
11.5252	749.4118	18.6165
11.5312	753.896	18.6848
11.53646	752.927	18.7532
11.5419	754.6601	18.8215
11.5465	751.8551	18.8899
11.5532	749.327	18.9583
11.5586	752.333	19.0266
11.5649	757.267	19.095
11.5704	761.54	19.16333
11.5765	767.8606	19.2317
11.5822	775.914	19.3
11.587	778.542	19.3684
11.59419	777.026	19.4368
11.5992	779.215	19.5051
11.6037	777.771	19.5735
11.6106	773.612	19.6418
11.6167	772.518	19.7102
11.6214	779.456	19.7786
11.6275	781.909	19.8469
11.633	785.8584	19.9153
[...]
13.5293	829.096	42.679
13.5305	822.783	42.6985
13.5339	818.562	42.718
13.5345	827.566	42.7375
13.5369	826.982	42.75708
13.5377	817.189	42.7766
13.539	824.899	42.7961
13.54117	828.683	42.8157
13.5436	817.232	42.8352
13.5441	822.596	42.8547
13.5466	828.299	42.8743
13.5477	819.859	42.8938
13.5498	822.752	42.91333
13.5517	831.937	42.9329
13.5523	817.406	42.9524
13.5541	821.661	42.9719
13.556	828.028	42.9915
13.5575	823.365	43.011
13.5592	816.616	43.0305
13.56	829.959	43.05
13.5624	820.032	43.06958
13.5642	819.772	43.0891
13.566	824.391	43.1086
13.5675	825.009	43.1282
13.5701	815.7829	43.1477
13.5701	824.272	43.1672
13.5718	824.928	43.1868
13.5729	818.668	43.2063
13.57502	817.442	43.22583
13.5768	827.2182	43.2454
13.5785	819.797	43.2649
13.5798	820.819	43.2844
13.5821	824.231	43.304
13.5836	820.326	43.3235
13.5849	815.636	43.343
13.5878	825.461	43.3625
13.58803	823.239	43.38208
13.5896	813.704	43.4016
13.5921	819.622	43.4211
13.5926	823.051	43.4407
13.5948	812.911	43.4602
13.6068	-116.391	43.4797
13.6038	-44.8462	43.4993
13.6035	-43.3044	43.5188
13.60413	-45.069	43.53833
13.6033	-41.1609	43.5579
13.6052	-49.53154	43.5774
13.6071	-50.2202	43.5969
13.6093	-38.7718	43.6165
13.61047	-50.9075	43.636
13.6121	-50.6932	43.6555
13.6136	-42.73151	43.675
13.6146	-44.9794	43.69458
13.6174	-52.2721	43.7141
13.6181	-41.5791	43.7336
13.6207	-45.4236	43.7532
13.6204	-50.1715	43.7727
13.62359	-46.4809	43.7922
13.62441	-39.848	43.8118
13.6256	-51.9385	43.8313
13.6277	-46.462	43.85083
13.6299	-42.0967	43.8704
13.6308	-46.2137	43.8899
13.63281	-51.1782	43.9094
13.6347	-39.6987	43.929
13.6358	-45.7465	43.9485
13.6376	-50.9876	43.968
13.6398	-44.9047	43.9875
13.64104	-44.8289	44.00708
13.6423	-53.1028	44.0266
13.6444	-43.7166	44.0461
13.6456	-40.7988	44.0657
13.6467	-51.6627	44.0852
13.6493	-46.2601	44.1047
13.6507	-40.3864	44.1243
13.6527	-49.0966	44.1438
13.6537	-49.5442	44.16333
13.6563	-39.0752	44.1829
13.65757	-49.7523	44.2024
13.6582	-49.3544	44.2219
13.6602	-41.0916	44.2415
13.6615	-46.4765	44.261
13.664	-51.9239	44.2805
13.6653	-40.2785	44.3
13.66676	-47.0585	44.31958
13.6689	-50.4085	44.3391
13.67	-45.4864	44.3586
13.6729	-42.8235	44.3782
13.6735	-49.8436	44.3977
13.6748	-43.0768	44.4172
13.6771	-47.27779	44.4368
13.6779	-49.3639	44.4563
13.68047	-48.3602	44.47583
13.6821	-38.9676	44.4954
13.6826	-48.5786	44.5149
13.684	-48.3669	44.5344
13.6874	-43.9762	44.554
13.68753	-43.7776	44.5735
13.6893	-51.1362	44.593
13.6909	-42.5527	44.6125
13.6933	-45.5951	44.63208
13.6939	-50.7433	44.6516
13.6958	-44.9939	44.6711
13.69812	-41.3623	44.6907
13.6996	-52.9941	44.7102
13.7007	-46.7555	44.7297
13.7027	-39.9715	44.7493
13.7049	-50.2589	44.7688
13.7065	-50.521	44.78833
13.707	-40.9067	44.8079
13.7098	-49.1871	44.8274
13.7108	-50.0628	44.8469
13.7125	-39.7707	44.8665
13.7143	-49.0618	44.886
13.7156	-52.0243	44.9055
13.717	-42.6049	44.925
13.7185	-44.6054	44.94458
13.7209	-53.0624	44.9641
13.722	-42.9509	44.9836
13.7239	-44.976	45.0032
13.7253	-49.6507	45.0227
13.7281	-46.6103	45.0422
13.7278	-41.5113	45.0618
13.7306	-51.0756	45.0813
13.7318	-44.8629	45.10083
13.7326	-42.9569	45.1204
13.735	-47.05	45.1399
13.7367	-51.7112	45.1594
13.7385	-39.7169	45.179
13.7403	-46.4565	45.1985
13.7421	-50.2666	45.218
13.7431	-45.4586	45.2375
13.7448	-44.0057	45.25708
13.7466	-52.3168	45.2766
13.7469	-44.47131	45.2961
13.7497	-42.5247	45.3157
13.7523	-51.7465	45.3352
13.7532	-47.4088	45.3547
13.7549	-39.8058	45.3743
13.7564	-51.6264	45.3938
13.7581	-48.4012	45.41333
13.7601	-40.1056	45.4329
13.7608	-49.4668	45.4524
13.7631	-50.6549	45.4719
13.7642	-41.7713	45.4915
13.7665	-47.8145	45.511
13.7683	-51.83577	45.5305
13.7686	-39.7828	45.55