Folder: Stress_Strain_Analysis_Tools/data/processed_data_files/tensile (part 20)

File: 0.254_hd_uprint_typeiv_090_r(1).dat
MTS793|BTW|ENU|1|2|.|/|:|1|0|0|A

Data Header:			0.254_hd_uprint_typeiv_090_r0			Time:	20.01709	s	4/13/2019 10:55:52 PM
Data Acquisition:	Timed
Station Name:	ft40.cfg
Test File Name:	monotonic_0.2540_typeiv_solid_4545_uprint.tst
Displacement	Force	Running Time
mm	N	s
-40.04253	-129.017	0.0219727
-40.04	-120.257	0.090332
-40.0358	-112.374	0.158691
-40.0291	-103.571	0.227051
-40.024	-101.575	0.29541
-40.0183	-101.404	0.36377
-40.0126	-105.31	0.432129
-40.0069	-109.31	0.500488
-40.0006	-113.907	0.568848
-39.9952	-113.074	0.637207
-39.98922	-101.068	0.705566
-39.9843	-93.9352	0.773926
-39.9789	-83.7095	0.842285
-39.9724	-72.8874	0.910645
-39.9671	-67.494	0.979004
-39.9608	-66.43	1.04736
-39.9555	-67.2064	1.11572
-39.9497	-72.3285	1.184082
-39.9439	-77.4102	1.25244
-39.9389	-78.7767	1.3208
-39.9332	-71.4106	1.38916
-39.9265	-65.4367	1.45752
-39.9221	-54.0732	1.52588
-39.9162	-43.4572	1.59424
-39.9094	-37.768	1.6626
-39.9053	-29.5207	1.730957
-39.89854	-30.6016	1.79932
-39.8925	-35.453	1.86768
-39.88773	-41.37059	1.93604
-39.8816	-41.3168	2.00439
-39.8766	-39.4973	2.07275
-39.8693	-36.5637	2.14111
-39.8643	-27.028	2.20947
-39.8573	-16.0087	2.277832
-39.8526	-7.77418	2.34619
-39.8475	2.16441	2.41455
-39.8411	6.4506	2.48291
-39.8362	0.294287	2.55127
-39.83	-3.335448	2.61963
-39.8248	-3.41172	2.68799
-39.818	-5.325201	2.75635
-39.8144	-5.2774	2.824707
-39.8071	2.9347	2.89307
-39.802	10.6156	2.96143
-39.7961	20.5765	3.02979
-39.7902	32.2202	3.09814
-39.7848	38.0363	3.1665
-39.778	35.33392	3.23486
-39.7733	33.1914	3.30322
-39.76754	33.7162	3.371582
-39.7638	29.1623	3.43994
-39.75576	28.4573	3.5083
-39.751	33.6004	3.57666
-39.7448	38.4227	3.64502
-39.7383	47.081	3.71338
-39.7328	60.8524	3.78174
-39.7281	70.1392	3.8501
-39.7234	69.3361	3.918457
-39.7148	71.0551	3.98682
-39.7109	73.8797	4.05518
-39.7056	65.40477	4.12354
-39.7	60.5227	4.19189
-39.6953	65.2423	4.26025
-39.6883	66.9621	4.32861
-39.6825	75.3316	4.39697
-39.6762	87.9461	4.465332
-39.6703	97.92	4.53369
-39.665	100.356	4.60205
-39.6603	105.692	4.67041
-39.654	109.31	4.73877
-39.6477	104.445	4.80713
-39.64238	98.8199	4.87549
-39.63702	99.2285	4.94385
-39.632	100.039	5.012207
-39.6244	104.161	5.08057
-39.6188	114.387	5.14893
-39.6136	124.843	5.21729
-39.6088	130.628	5.28564
-39.6019	136.3161	5.354
-39.5982	143.557	5.42236
-39.5914	138.9809	5.49072
-39.58569	135.367	5.559082
-39.5796	134.864	5.62744
-39.57539	132.716	5.6958
-39.5676	133.747	5.76416
-39.5633	141.737	5.83252
-39.5564	149.7473	5.90088
-39.5506	157.456	5.96924
-39.54517	167.869	6.0376
-39.5393	174.529	6.105957
-39.5343	173.745	6.17432
-39.5289	169.166	6.24268
-39.5231	169.274	6.31104
-39.517	165.686	6.37939
-39.5114	166.7641	6.44775
-39.5052	170.828	6.51611
-39.5008	174.677	6.58447
-39.4938	182.567	6.652832
-39.4881	194.343	6.72119
-39.4828	202.548	6.78955
-39.4769	206.65	6.85791
-39.472	205.343	6.92627
-39.4649	203.937	6.99463
-39.4594	200.078	7.06299
-39.4546	199.704	7.13135
-39.4494	197.679	7.199707
-39.4437	201.505	7.26807
-39.4367	207.976	7.33643
-39.4313	220.007	7.40479
-39.4264	228.972	7.47314
-39.4204	235.986	7.5415
-39.41386	237.1315	7.60986
-39.4085	237.129	7.67822
-39.4022	236.343	7.746582
-39.3979	233.168	7.81494
-39.3919	230.218	7.8833
-39.3864	229.998	7.95166
-39.38	236.096	8.02002
-39.3749	245.7509	8.08838
-39.3687	254.064	8.15674
-39.3628	261.32	8.2251
-39.3581	268.755	8.293457
-39.3519	268.032	8.36182
-39.3465	269.252	8.43018
-39.341	267.087	8.49854
-39.3356	261.988	8.56689
-39.3303	259.474	8.63525
-39.32468	261.242	8.70361
-39.3175	272.487	8.77197
-39.3121	276.549	8.840332
-39.3061	287.161	8.90869
-39.3002	295.2605	8.97705
-39.2943	298.239	9.04541
-39.2898	299.908	9.11377
-39.2833	299.489	9.18213
-39.2776	295.3959	9.25049
-39.2725	289.403	9.31885
-39.2663	290.841	9.387207
-39.2605	296.801	9.45557
-39.25526	301.599	9.52393
-39.2486	311.7059	9.59229
-39.2436	321.669	9.66064
-39.23764	324.1	9.729
-39.2319	331.088	9.79736
-39.228	331.99	9.86572
-39.2209	325.338	9.934082
-39.216	319.542	10.0024
-39.20977	320.695	10.0708
-39.2036	324.644	10.13916
-39.19857	325.429	10.20752
-39.1933	331.995	10.2759
-39.1872	343.304	10.3442
-39.1801	350.113	10.4126
-39.1749	354.218	10.481
-39.1701	358.737	10.5493
-39.1646	352.902	10.6177
-39.1585	349.692	10.686
-39.153	351.042	10.7544
-39.1465	350.826	10.8228
-39.1407	348.05	10.8911
-39.1356	354.447	10.9595
-39.1294	362.242	11.0278
-39.1249	370.493	11.0962
-39.1184	377.999	11.1646
-39.113	383.8757	11.23291
-39.1064	381.918	11.30127
-39.1026	379.37	11.3696
-39.0957	377.754	11.438
-39.0908	375.066	11.5063
-39.0833	372.384	11.5747
-39.0789	375.454	11.6431
-39.0732	381.314	11.7114
-39.0671	389.547	11.7798
-39.0612	397.988	11.8481
-39.0552	404.339	11.9165
-39.0488	404.1	11.9849
-39.0445	401.827	12.0532
-39.0387	402.8671	12.1216
-39.0334	397.207	12.1899
-39.0276	394.712	12.2583
-39.0223	394.56	12.32666
-39.0151	397.233	12.39502
-39.0096	403.911	12.4634
-39.00378	412.3468	12.5317
-38.9984	418.276	12.6001
-38.9937	419.838	12.6685
-38.987	421.736	12.7368
-38.9809	422.546	12.8052
-38.976	416.9462	12.8735
-38.9704	412.714	12.9419
-38.9653	410.995	13.0103
-38.959	409.482	13.0786
-38.954	415.5676	13.147
-38.9471	421.777	13.2153
-38.9418	427.232	13.2837
-38.9369	431.515	13.3521
-38.9302	435.714	13.42041
-38.9239	436.164	13.48877
-38.9195	433.059	13.5571
-38.91293	428.005	13.6255
-38.9073	423.372	13.6938
-38.9022	420.423	13.7622
-38.8965	421.903	13.8306
-38.8914	426.689	13.8989
-38.8843	430.741	13.9673
-38.8791	437.837	14.0356
-38.8741	445.765	14.104
-38.8678	445.972	14.1724
-38.8629	441.931	14.2407
-38.8559	438.209	14.3091
-38.8502	432.762	14.3774
-38.8455	427.795	14.4458
-38.8401	426.444	14.51416
-38.8342	429.748	14.58252
-38.8272	431.446	14.6509
-38.8214	436.132	14.7192
-38.8171	448.246	14.7876
-38.8114	447.793	14.856
-38.8052	446.17	14.9243
-38.7988	445.841	14.9927
-38.7937	438.695	15.061
-38.78833	431.306	15.1294
-38.78228	429.671	15.1978
-38.777	428.213	15.2661
-38.7706	427.481	15.3345
-38.7662	434.494	15.4028
-38.7605	444.69	15.4712
-38.7543	447.096	15.5396
-38.7488	448.227	15.60791
-38.7417	448.91	15.67627
-38.7368	442.569	15.7446
-38.7318	434.415	15.813
-38.725	430.692	15.8813
-38.718	427.4964	15.9497
-38.7146	423.731	16.0181
-38.7096	427.994	16.0864
-38.70245	438.429	16.1548
-38.69717	442.816	16.2231
-38.6903	444.048	16.2915
-38.6861	448.397	16.3599
-38.6795	443.046	16.4282
-38.6744	436.379	16.4966
-38.66906	432.636	16.5649
-38.6627	426.799	16.6333
-38.6577	419.439	16.70166
-38.6509	422.448	16.77002
-38.64613	430.767	16.8384
-38.6401	435.399	16.9067
-38.6339	439.714	16.9751
-38.6281	443.079	17.0435
-38.6227	440.795	17.1118
-38.6175	435.658	17.1802
-38.6114	431.453	17.2485
-38.6056	422.454	17.3169
-38.5996	415.506	17.3853
-38.5959	417.266	17.4536
-38.5887	424.7399	17.522
-38.5831	426.818	17.5903
-38.5772	432.696	17.6587
-38.5728	437.398	17.7271
-38.56488	439.4	17.79541
-38.5605	435.544	17.86377
-38.5546	433.077	17.9321
-38.5493	422.954	18.0005
-38.5429	416.3472	18.0688
-38.53627	414.925	18.1372
-38.53196	417.94	18.2056
-38.5261	421.927	18.2739
-38.5198	427.962	18.3423
-38.5146	432.812	18.4106
-38.51	435.642	18.479
-38.5032	435.956	18.5474
-38.4974	431.76	18.6157
-38.4916	424.981	18.6841
-38.4868	417.239	18.7524
-38.4808	415.185	18.8208
-38.4757	414.893	18.88916
-38.4695	415.612	18.95752
-38.4636	422.392	19.0259
-38.4576	427.7406	19.0942
[...]
-37.7786	411.926	27.2485
-37.77317	425.247	27.2974
-37.7702	423.972	27.3462
-37.76569	409.816	27.39502
-37.7632	406.734	27.4438
-37.7576	418.018	27.4927
-37.7534	426.335	27.5415
-37.7502	416.892	27.5903
-37.7449	403.45	27.63916
-37.7417	407.955	27.688
-37.7379	420.554	27.7368
-37.7323	420.534	27.7856
-37.7306	407.1456	27.8345
-37.7251	402.464	27.8833
-37.7223	413.531	27.9321
-37.71693	424.5892	27.981
-37.7136	420.428	28.0298
-37.7104	407.1123	28.0786
-37.70499	407.2171	28.1274
-37.70089	421.777	28.17627
-37.6967	424.67	28.2251
-37.6937	411.258	28.2739
-37.6883	403.678	28.3228
-37.6858	411.5715	28.3716
-37.6819	423.393	28.42041
-37.6771	417.336	28.4692
-37.6729	403.4	28.5181
-37.6703	401.644	28.5669
-37.6652	415.804	28.6157
-37.6608	425.671	28.6646
-37.6562	416.593	28.7134
-37.6521	403.8175	28.7622
-37.6481	409.479	28.811
-37.6437	423.246	28.8599
-37.6401	422.755	28.9087
-37.6362	406.6394	28.95752
-37.6316	401.736	29.0063
-37.6277	414.612	29.0552
-37.6238	422.904	29.104
-37.6194	413.875	29.1528
-37.6153	398.93	29.20166
-37.6121	401.979	29.2505
-37.6071	420.091	29.2993
-37.6041	423.399	29.3481
-37.5994	410.671	29.397
-37.5949	402.567	29.4458
-37.59063	411.485	29.4946
-37.5875	423.91	29.5435
-37.5822	419.15	29.5923
-37.5784	404.392	29.6411
-37.5751	403.566	29.6899
-37.5707	416.956	29.73877
-37.5668	423.975	29.7876
-37.5623	408.788	29.8364
-37.5595	396.531	29.8853
-37.5544	405.265	29.9341
-37.5508	418.517	29.98291
-37.5468	418.661	30.0317
-37.5423	404.877	30.0806
-37.5369	401.026	30.1294
-37.5346	413.548	30.1782
-37.5293	421.03	30.2271
-37.52541	410.907	30.2759
-37.5221	399.757	30.3247
-37.518	404.196	30.3735
-37.5144	418.04	30.4224
-37.50967	419.713	30.4712
-37.5065	404.756	30.52002
-37.5015	396.517	30.5688
-37.4972	407.233	30.6177
-37.4933	417.75	30.6665
-37.4896	413.435	30.7153
-37.4854	400.9	30.76416
-37.4813	403.253	30.813
-37.4767	414.073	30.8618
-37.4732	416.907	30.9106
-37.47	405.387	30.9595
-37.4643	398.866	31.0083
-37.4604	407.5451	31.0571
-37.4564	417.943	31.106
-37.45417	413.741	31.1548
-37.449	398.571	31.2036
-37.4449	397.917	31.2524
-37.4405	408.567	31.30127
-37.4367	412.443	31.3501
-37.433	403.4465	31.3989
-37.4285	394.031	31.4478
-37.4224	-98.98748	31.4966
-37.4188	-30.71866	31.54541
-37.4155	-34.0805	31.5942
-37.4124	-44.1661	31.6431
-37.40852	-48.3507	31.6919
-37.4031	-40.39502	31.7407
-37.3994	-31.5444	31.7896
-37.3957	-35.7171	31.8384
-37.392	-47.1553	31.8872
-37.3874	-48.5938	31.936
-37.3832	-37.4523	31.9849
-37.3797	-33.9461	32.0337
-37.3758	-42.2556	32.08252
-37.3712	-48.5918	32.1313
-37.3674	-41.7567	32.1802
-37.3613	-29.9722	32.229
-37.359	-37.2035	32.2778
-37.3558	-47.7857	32.32666
-37.3501	-46.1809	32.3755
-37.3464	-36.7915	32.4243
-37.3423	-31.9916	32.4731
-37.34	-41.77924	32.522
-37.3338	-48.8796	32.5708
-37.3308	-44.9211	32.6196
-37.3267	-35.7486	32.6685
-37.3228	-36.067	32.7173
-37.3187	-47.69577	32.7661
-37.315	-49.5155	32.8149
-37.3102	-38.7794	32.86377
-37.3052	-32.1836	32.9126
-37.3025	-40.0712	32.9614
-37.2974	-49.8904	33.0103
-37.2938	-45.1252	33.0591
-37.2892	-34.6676	33.10791
-37.2858	-33.5785	33.1567
-37.2816	-44.2308	33.2056
-37.2769	-47.5356	33.2544
-37.2739	-41.7805	33.3032
-37.2705	-33.768	33.3521
-37.2657	-40.5734	33.4009
-37.2611	-49.6324	33.4497
-37.2573	-47.2739	33.4985
-37.253	-34.361	33.5474
-37.2494	-32.9963	33.5962
-37.2456	-45.63	33.64502
-37.24041	-50.7652	33.6938
-37.2378	-42.4097	33.7427
-37.2332	-32.0033	33.7915
-37.2297	-36.1608	33.8403
-37.2249	-48.6139	33.88916
-37.2207	-48.2965	33.938
-37.217	-35.9301	33.9868
-37.21244	-33.0807	34.0356
-37.2082	-42.5454	34.0845
-37.20533	-51.9735	34.1333
-37.2	-44.5338	34.1821
-37.1992	-40.5825	34.2114

File: 0.254_hd_uprint_typeiv_090_r(2).dat
MTS793|BTW|ENU|1|2|.|/|:|1|0|0|A

Data Header:			0.254_hd_uprint_typeiv_090_r0			Time:	20.0176	s	4/13/2019 10:58:48 PM
Data Acquisition:	Timed
Station Name:	ft40.cfg
Test File Name:	monotonic_0.2540_typeiv_solid_4545_uprint.tst
Displacement	Force	Running Time
mm	N	s
-40.0423	-103.21	0.0229492
-40.0408	-99.9318	0.0913086
-40.0341	-100.765	0.159668
-40.0292	-98.6409	0.228027
-40.0232	-94.5351	0.296387
-40.0194	-95.2834	0.364746
-40.0117	-91.61805	0.433105
-40.0067	-84.7772	0.501465
-40.0012	-83.67382	0.569824
-39.99445	-80.798	0.638184
-39.9892	-70.1982	0.706543
-39.9835	-66.3049	0.774902
-39.9784	-65.7944	0.843262
-39.9733	-62.70705	0.911621
-39.9672	-61.9461	0.97998
-39.961	-60.0542	1.04834
-39.9549	-56.5353	1.1167
-39.9498	-53.8409	1.18506
-39.9435	-53.0681	1.253418
-39.9388	-48.8277	1.32178
-39.93327	-39.7526	1.39014
-39.9261	-35.6688	1.4585
-39.92	-32.9092	1.52686
-39.9146	-30.3147	1.59521
-39.9095	-29.0164	1.66357
-39.90435	-27.1202	1.73193
-39.8981	-24.76	1.800293
-39.8939	-22.3352	1.86865
-39.8881	-21.3895	1.93701
-39.8815	-16.39	2.00537
-39.8752	-8.69185	2.07373
-39.8702	-5.99577	2.14209
-39.8643	-2.2943	2.21045
-39.8595	2.24121	2.27881
-39.8525	5.51439	2.347168
-39.8479	8.73865	2.41553
-39.8418	9.69844	2.48389
-39.8364	7.83319	2.55225
-39.8308	11.0556	2.62061
-39.8235	17.1389	2.68896
-39.8185	19.8792	2.75732
-39.8132	26.5312	2.82568
-39.8067	29.6399	2.894043
-39.8017	35.9997	2.9624
-39.7961	41.1112	3.03076
-39.7901	44.5285	3.09912
-39.7835	41.9988	3.16748
-39.779	41.6478	3.23584
-39.7735	44.2266	3.3042
-39.7684	48.1105	3.37256
-39.76236	52.5073	3.440918
-39.756	58.6126	3.50928
-39.7504	63.0501	3.57764
-39.7454	67.5456	3.646
-39.7389	74.1503	3.71436
-39.7335	76.0906	3.78271
-39.7276	76.1044	3.85107
-39.7235	75.624	3.91943
-39.7167	78.1894	3.987793
-39.7107	79.9108	4.05615
-39.7041	81.9	4.12451
-39.6993	87.1956	4.19287
-39.6933	94.111	4.26123
-39.6884	97.32415	4.32959
-39.6826	103.241	4.39795
-39.6765	109.615	4.46631
-39.6706	107.952	4.534668
-39.6658	107.65	4.60303
-39.6592	111.896	4.67139
-39.6528	113.3262	4.73975
-39.6475	113.76	4.80811
-39.6424	120.178	4.87646
-39.6371	123.7422	4.94482
-39.6305	128.193	5.01318
-39.6253	135.139	5.081543
-39.6187	138.936	5.1499
-39.6145	137.7706	5.21826
-39.6084	140.995	5.28662
-39.6025	147.343	5.35498
-39.5959	145.179	5.42334
-39.591	145.3593	5.4917
-39.5864	149.419	5.56006
-39.5803	152.85	5.628418
-39.5744	159.21	5.69678
-39.5676	166.601	5.76514
-39.5615	169.9062	5.8335
-39.5569	169.752	5.90186
-39.5503	173.4512	5.97021
-39.54594	177.753	6.03857
-39.5393	175.107	6.10693
-39.534	176.8582	6.175293
-39.528	180.4267	6.24365
-39.5232	182.722	6.31201
-39.5171	187.912	6.38037
-39.5111	195.418	6.44873
-39.5059	197.721	6.51709
-39.5	200.03	6.58545
-39.4936	206.072	6.65381
-39.4895	208.817	6.722168
-39.4824	207.259	6.79053
-39.4776	209.731	6.85889
-39.4716	212.839	6.92725
-39.4656	211.823	6.99561
-39.4595	216.905	7.06396
-39.4542	223.491	7.13232
-39.4482	226.757	7.20068
-39.44331	228.6	7.269043
-39.4372	235.406	7.3374
-39.4305	238.929	7.40576
-39.4258	238.062	7.47412
-39.4208	240.402	7.54248
-39.4155	242.463	7.61084
-39.4089	244.325	7.6792
-39.4023	245.824	7.74756
-39.3971	250.603	7.815918
-39.3923	253.477	7.88428
-39.3867	256.007	7.95264
-39.381	264.645	8.021
-39.3743	268.395	8.08936
-39.3688	269.556	8.15771
-39.36401	271.141	8.22607
-39.3565	271.809	8.29443
-39.3513	273.776	8.362793
-39.34621	275.452	8.43115
-39.3411	279.526	8.49951
-39.3327	279.659	8.56787
-39.3295	284.406	8.63623
-39.3231	293.158	8.70459
-39.3179	295.2435	8.77295
-39.31118	298.774	8.84131
-39.3062	301.1532	8.909668
-39.29987	301.456	8.97803
-39.295	302.858	9.04639
-39.2895	303.721	9.11475
-39.2839	304.722	9.18311
-39.278	304.814	9.25146
-39.2731	311.217	9.31982
-39.2651	319.332	9.38818
-39.2611	321.652	9.456543
-39.2554	325.99	9.5249
-39.2501	328.391	9.59326
-39.2432	328.3515	9.66162
-39.23801	330.749	9.72998
-39.2325	330.7048	9.79834
-39.2261	330.293	9.8667
-39.2206	331.213	9.93506
-39.2149	337.756	10.0034
-39.2099	341.961	10.0718
-39.2047	344.948	10.1401
-39.1978	352.672	10.2085
-39.1927	354.517	10.2769
-39.187	357.956	10.3452
-39.18148	358.542	10.4136
-39.1746	358.164	10.4819
-39.16935	355.896	10.5503
-39.1641	356.787	10.6187
-39.1582	362.954	10.687
-39.1532	364.92	10.7554
-39.1465	370.133	10.82373
-39.14056	375.9671	10.89209
-39.135	377.054	10.9604
-39.1304	379.233	11.0288
-39.125	383.678	11.0972
-39.11895	383.9371	11.1655
-39.1121	379.042	11.2339
-39.1069	380.548	11.3022
-39.1014	386.402	11.3706
-39.0951	384.391	11.439
-39.0901	389.416	11.5073
-39.0838	395.375	11.5757
-39.0774	397.277	11.644
-39.07209	401.713	11.7124
-39.0671	404.741	11.7808
-39.0613	404.696	11.8491
-39.0569	400.763	11.91748
-39.0504	402.525	11.98584
-39.04501	406.249	12.0542
-39.0391	402.801	12.1226
-39.0331	407.605	12.1909
-39.0272	410.092	12.2593
-39.0215	413.348	12.3276
-39.0155	417.8504	12.396
-39.0097	421.423	12.4644
-39.0053	421.155	12.5327
-38.99818	416.97	12.6011
-38.9938	419.715	12.6694
-38.9886	419.308	12.7378
-38.9807	416.842	12.8062
-38.9762	418.715	12.8745
-38.9705	423.882	12.9429
-38.9645	423.5899	13.01123
-38.9589	429.296	13.07959
-38.954	433.9	13.1479
-38.9481	431.961	13.2163
-38.9414	428.914	13.2847
-38.9361	431.563	13.353
-38.9304	429.719	13.4214
-38.9248	425.766	13.4897
-38.9197	427.17	13.5581
-38.9138	429.364	13.6265
-38.9076	432.725	13.6948
-38.90287	434.197	13.7632
-38.896	437.93	13.8315
-38.8902	437.408	13.8999
-38.8845	436.879	13.9683
-38.8788	439.092	14.0366
-38.8735	437.769	14.10498
-38.8677	430.458	14.17334
-38.8614	431.187	14.2417
-38.8571	432.058	14.3101
-38.8512	434.077	14.3784
-38.8457	436.345	14.4468
-38.8394	438.623	14.5151
-38.835	438.229	14.5835
-38.8278	438.649	14.6519
-38.8217	440.504	14.7202
-38.8165	437.074	14.7886
-38.8109	434.145	14.8569
-38.8059	431.963	14.9253
-38.8	431.007	14.9937
-38.7935	432.948	15.062
-38.7883	433.816	15.1304
-38.7819	435.22	15.19873
-38.7769	434.912	15.26709
-38.772	437.339	15.3354
-38.7651	438.879	15.4038
-38.75914	435.096	15.4722
-38.755	434.799	15.5405
-38.7466	431.471	15.6089
-38.7426	428.762	15.6772
-38.73642	428.431	15.7456
-38.7316	428.852	15.814
-38.7259	428.595	15.8823
-38.7196	428.256	15.9507
-38.7135	434.507	16.019
-38.7091	433.668	16.0874
-38.7032	432.442	16.1558
-38.6973	432.375	16.2241
-38.69173	428.655	16.29248
-38.6841	424.719	16.36084
-38.68084	426.1066	16.4292
-38.6746	424.662	16.4976
-38.668	422.945	16.5659
-38.6624	424.292	16.6343
-38.6567	429.654	16.7026
-38.6517	428.679	16.771
-38.6451	427.572	16.8394
-38.64045	429.831	16.9077
-38.6362	425.6218	16.9761
-38.6283	423.541	17.0444
-38.6219	422.889	17.1128
-38.6174	423.121	17.1812
-38.6107	418.443	17.2495
-38.607	418.795	17.3179
-38.59993	425.877	17.38623
-38.5938	424.721	17.45459
-38.5896	424.244	17.5229
-38.5824	429.462	17.5913
-38.5763	426.261	17.6597
-38.5725	422.535	17.728
-38.5657	421.714	17.7964
-38.5609	419.943	17.8647
-38.5554	415.915	17.9331
-38.5489	416.294	18.0015
-38.5439	422.439	18.0698
-38.5373	421.037	18.1382
-38.532	422.501	18.2065
-38.52486	426.077	18.2749
-38.5194	424.148	18.3433
-38.5135	424.318	18.4116
-38.5098	421.015	18.47998
-38.5047	417.786	18.54834
-38.4984	412.874	18.6167
-38.4918	413.677	18.6851
-38.4872	419.0473	18.7534
-38.4813	418.223	18.8218
-38.4742	419.562	18.8901
-38.4695	423.288	18.9585
-38.4642	423.82	19.0269
-38.4569	422.406	19.0952
[...]
-38.0549	411.328	23.9292
-38.0515	417.015	23.9683
-38.0488	412.593	24.0073
-38.04525	412.699	24.0464
-38.042	419.107	24.0854
-38.0386	408.967	24.1245
-38.0349	417.813	24.1636
-38.032	416.267	24.2026
-38.029	409.336	24.2417
-38.0265	418.777	24.2808
-38.02306	413.2623	24.3198
-38.019	411.668	24.3589
-38.0158	417.862	24.3979
-38.0121	409.318	24.437
-38.00985	410.211	24.4761
-38.0055	413.849	24.5151
-38.0036	406.219	24.5542
-37.9997	415.699	24.5933
-37.9959	408.151	24.6323
-37.9938	408.244	24.6714
-37.9891	416.804	24.7104
-37.9869	404.135	24.7495
-37.98386	412.178	24.7886
-37.9813	413.042	24.8276
-37.9774	405.971	24.8667
-37.9728	413.304	24.9058
-37.9691	409.657	24.9448
-37.9673	407.615	24.9839
-37.9638	414.53	25.0229
-37.9608	409.811	25.062
-37.9571	412.661	25.1011
-37.9537	411.345	25.1401
-37.9511	408.705	25.1792
-37.9478	415.8898	25.2183
-37.9438	407.549	25.2573
-37.941	409.744	25.2964
-37.9378	414.834	25.3354
-37.93539	406.572	25.3745
-37.9308	414.097	25.4136
-37.9283	413.3638	25.4526
-37.9241	406.547	25.4917
-37.9214	413.766	25.5308
-37.9182	409.57	25.5698
-37.9152	407.3671	25.6089
-37.9135	414.197	25.6479
-37.9087	405.428	25.687
-37.9055	409.945	25.7261
-37.9021	409.354	25.7651
-37.8983	404.3815	25.8042
-37.8947	412.3316	25.8433
-37.8919	405.403	25.8823
-37.8895	405.072	25.9214
-37.88546	412.305	25.9604
-37.88073	402.8168	25.9995
-37.879	407.228	26.0386
-37.8754	412.544	26.0776
-37.8728	401.931	26.1167
-37.8698	411.68	26.1558
-37.8664	406.154	26.1948
-37.86211	404.484	26.2339
-37.8603	411.694	26.2729
-37.8558	404.91	26.312
-37.8536	407.936	26.3511
-37.8507	408.667	26.3901
-37.8463	403.572	26.4292
-37.8434	410.532	26.4683
-37.8394	406.429	26.5073
-37.8369	404.582	26.5464
-37.8336	412.368	26.5854
-37.83025	401.072	26.6245
-37.827	406.804	26.6636
-37.8237	407.237	26.7026
-37.8209	399.847	26.7417
-37.8159	408.9173	26.7808
-37.81329	402.925	26.8198
-37.81073	398.753	26.8589
-37.8072	403.883	26.8979
-37.8041	397.342	26.937
-37.8005	400.483	26.9761
-37.7983	399.199	27.0151
-37.7936	392.323	27.0542
-37.7909	397.621	27.0933
-37.7854	-14.0958	27.1323
-37.7832	-44.5971	27.1714
-37.7817	-36.1121	27.2104
-37.77721	-47.381	27.2495
-37.7748	-38.3999	27.2886
-37.7722	-39.2099	27.3276
-37.7694	-45.4881	27.3667
-37.7661	-39.40493	27.4058
-37.7622	-39.5069	27.4448
-37.7573	-44.5463	27.4839
-37.7558	-37.08	27.5229
-37.7517	-42.8123	27.562
-37.7481	-40.3133	27.6011
-37.7448	-38.4302	27.6401
-37.742	-42.1662	27.6792
-37.7396	-35.98201	27.7183
-37.735	-42.6961	27.7573
-37.7332	-41.9687	27.7964
-37.7288	-36.4913	27.8354
-37.7266	-43.8129	27.8745
-37.7224	-39.1401	27.9136
-37.7191	-38.9305	27.9526
-37.715	-46.7562	27.9917
-37.7126	-38.7327	28.0308
-37.71	-41.20602	28.0698
-37.7068	-44.3677	28.1089
-37.7043	-37.8302	28.1479
-37.7001	-45.3119	28.187
-37.6967	-40.2876	28.2261
-37.6929	-43.1074	28.2651
-37.68932	-43.7423	28.3042
-37.6864	-38.0292	28.3433
-37.6833	-43.9914	28.3823
-37.6808	-42.72982	28.4214
-37.6769	-36.6438	28.4604
-37.67313	-48.00452	28.4995
-37.6715	-40.1456	28.5386
-37.6677	-38.0689	28.5776
-37.6641	-47.27578	28.6167
-37.6605	-38.13	28.6558
-37.6575	-41.4465	28.6948
-37.654	-42.3812	28.7339
-37.6517	-38.2624	28.7729
-37.6488	-42.4134	28.812
-37.6456	-38.78215	28.8511
-37.6414	-38.6003	28.8901
-37.6389	-42.492	28.9292
-37.635	-35.724	28.9683
-37.6311	-41.1678	29.0073
-37.628	-40.08585	29.0464
-37.62466	-35.48748	29.0854
-37.6217	-46.1023	29.1245
-37.6182	-39.4987	29.1636
-37.6156	-39.5649	29.2026
-37.6126	-44.0297	29.2417
-37.6094	-36.1657	29.2808
-37.6052	-42.9383	29.3198
-37.6027	-43.02647	29.3589
-37.5998	-38.87122	29.3979
-37.5955	-45.1822	29.437
-37.59198	-40.4705	29.4761
-37.5911	-43.2233	29.4956