Folder: Stress_Strain_Analysis_Tools/data/processed_data_files/tensile (part 5)

File: 0.254_hd_dimension_typei_4545_r(3).dat
MTS793|BTW|ENU|1|2|.|/|:|1|0|0|A

Data Header:			0.254_hd_dimension_typei_4545_r0			Time:	20.0181	s	4/15/2019 3:12:21 PM
Data Acquisition:	Timed
Station Name:	ft40.cfg
Test File Name:	monotonic_0.2540_typei_hd_4545_dimension.tst
Displacement	Force	Running Time
mm	N	s
9.98059	-128.632	0.0224609
9.9829	-127.071	0.0908203
9.98771	-120.808	0.15918
9.99505	-117.597	0.227539
10.0002	-112.974	0.295898
10.0058	-104.204	0.364258
10.01233	-101.4761	0.432617
10.0172	-96.2208	0.500977
10.023	-93.7355	0.569336
10.0283	-93.7255	0.637695
10.03421	-96.6765	0.706055
10.0396	-94.00985	0.774414
10.0461	-90.574	0.842773
10.0512	-87.1926	0.911133
10.0577	-83.5817	0.979492
10.0624	-76.0365	1.04785
10.06769	-72.3363	1.11621
10.0746	-63.9268	1.18457
10.0796	-62.0521	1.25293
10.08459	-60.78495	1.32129
10.0914	-60.9566	1.38965
10.0969	-60.0127	1.45801
10.1037	-59.4113	1.52637
10.1092	-58.8738	1.59473
10.1142	-51.7734	1.66309
10.1196	-47.1023	1.73145
10.126	-41.267	1.7998
10.1314	-33.99931	1.86816
10.1377	-29.1608	1.93652
10.1416	-31.1286	2.00488
10.1498	-32.0558	2.07324
10.1541	-24.9143	2.1416
10.1594	-26.61742	2.20996
10.1654	-25.5854	2.27832
10.1715	-21.7658	2.34668
10.178	-17.1395	2.41504
10.1829	-13.4538	2.4834
10.1873	-3.421016	2.55176
10.1937	3.30872	2.62012
10.1997	3.72708	2.68848
10.2056	2.77667	2.75684
10.2106	8.98124	2.8252
10.2169	9.49415	2.89355
10.2229	5.58124	2.96191
10.22902	9.61345	3.03027
10.2336	16.7634	3.09863
10.23916	17.8816	3.16699
10.246	25.0815	3.23535
10.2505	33.4149	3.30371
10.2566	36.4113	3.37207
10.2632	36.8727	3.44043
10.268	42.9209	3.50879
10.2735	44.1221	3.57715
10.2804	41.9465	3.64551
10.2856	43.8718	3.71387
10.2917	47.0624	3.78223
10.29661	50.6406	3.85059
10.3018	55.3421	3.91895
10.3084	62.6447	3.9873
10.3133	67.6371	4.05566
10.3202	70.6721	4.12402
10.3252	76.3032	4.19238
10.3306	78.0617	4.26074
10.3366	75.9016	4.3291
10.34281	77.06768	4.39746
10.3466	79.9939	4.46582
10.3532	82.2104	4.53418
10.3591	86.419	4.60254
10.3641	92.53	4.6709
10.36992	97.3862	4.73926
10.3762	100.575	4.80762
10.3814	108.2985	4.87598
10.3869	112.845	4.94434
10.3929	113.897	5.0127
10.3989	113.506	5.08105
10.4048	113.948	5.14941
10.4104	115.659	5.21777
10.4167	117.264	5.28613
10.4221	123.505	5.35449
10.4275	126.302	5.42285
10.4336	133.503	5.49121
10.4383	141.521	5.55957
10.4441	143.247	5.62793
10.45	143.785	5.69629
10.4554	147.787	5.76465
10.4613	145.431	5.83301
10.46744	145.406	5.90137
10.4734	149.805	5.96973
10.4791	153.4071	6.03809
10.4836	155.497	6.10645
10.491	162.2444	6.1748
10.4952	173.341	6.24316
10.501	174.388	6.31152
10.5074	178.211	6.37988
10.5132	182.312	6.44824
10.5187	179.117	6.5166
10.52412	180.075	6.58496
10.5295	182.156	6.65332
10.5344	184.751	6.72168
10.5417	185.653	6.79004
10.546	190.911	6.8584
10.5522	203.392	6.92676
10.559	207.324	6.99512
10.5632	211.021	7.06348
10.56995	215.467	7.13184
10.5744	215.474	7.2002
10.581	213.487	7.26855
10.5873	214.007	7.33691
10.5925	219.066	7.40527
10.5994	216.1998	7.47363
10.6051	221.453	7.54199
10.6092	232.812	7.61035
10.61491	239.165	7.67871
10.621	241.962	7.74707
10.6269	247.959	7.81543
10.6319	250.031	7.88379
10.6381	248.028	7.95215
10.6429	248.508	8.02051
10.6493	248.354	8.08887
10.6555	247.701	8.15723
10.6606	251.719	8.22559
10.6663	262.906	8.29395
10.67228	268.069	8.3623
10.6779	273.065	8.43066
10.6833	279.262	8.49902
10.6894	282.587	8.56738
10.6952	284.571	8.63574
10.7004	282.6424	8.7041
10.7055	281.638	8.77246
10.71163	281.959	8.84082
10.71757	283.314	8.90918
10.7228	290.651	8.97754
10.72878	297.292	9.0459
10.7345	301.3472	9.11426
10.7411	308.223	9.18262
10.7461	311.972	9.25098
10.7514	317.606	9.31934
10.758	318.944	9.3877
10.7631	316.0668	9.45605
10.7689	312.8121	9.52441
10.7746	315.159	9.59277
10.7797	320.759	9.66113
10.7872	323.482	9.72949
10.7916	333.092	9.79785
10.7976	339.121	9.86621
10.8031	343.585	9.93457
10.81	349.911	10.00293
10.8148	352.007	10.0713
10.8201	351.1651	10.1396
10.8255	345.011	10.208
10.8321	345.8035	10.2764
10.8367	351.965	10.3447
10.8435	353.622	10.4131
10.84861	359.65	10.4814
10.8547	367.941	10.5498
10.8603	373.67	10.6182
10.8666	378.015	10.6865
10.8717	384.217	10.7549
10.8781	385.56	10.8232
10.88275	378.673	10.8916
10.8874	378.753	10.96
10.8941	383.701	11.02832
10.9003	384.363	11.09668
10.90626	387.322	11.165
10.9114	395.061	11.2334
10.9165	402.425	11.3018
10.9237	407.69	11.3701
10.9286	414.328	11.4385
10.9342	416.542	11.5068
10.9403	412.209	11.5752
10.9452	411.297	11.6436
10.951	415.463	11.7119
10.9579	414.859	11.7803
10.96313	416.617	11.8486
10.9677	423.866	11.917
10.9737	428.854	11.9854
10.98	436.585	12.0537
10.9857	442.958	12.12207
10.9917	445.74	12.19043
10.996	446.271	12.2588
11.0025	442.7377	12.3271
11.00811	446.209	12.3955
11.0142	445.315	12.4639
11.0193	446.747	12.5322
11.02499	450.796	12.6006
11.0313	455.948	12.6689
11.0365	464.832	12.7373
11.0432	471.998	12.8057
11.0476	474.981	12.874
11.05322	474.533	12.9424
11.0592	476.862	13.0107
11.065	478.622	13.0791
11.07007	475.794	13.1475
11.0761	476.805	13.21582
11.08192	478.886	13.28418
11.0874	483.868	13.3525
11.093	490.0336	13.4209
11.0992	498.609	13.4893
11.105	503.299	13.5576
11.1099	503.551	13.626
11.1164	508.491	13.6943
11.1214	511.019	13.7627
11.1277	508.064	13.8311
11.1331	507.0123	13.8994
11.13947	509.7	13.9678
11.1443	510.674	14.0361
11.1514	515.9668	14.1045
11.15641	525.334	14.1729
11.1618	530.835	14.2412
11.1679	531.406	14.30957
11.1738	536.572	14.37793
11.1782	542.076	14.4463
11.1857	538.012	14.5146
11.1902	537.404	14.583
11.197	538.064	14.6514
11.2021	537.188	14.7197
11.2067	544.339	14.7881
11.2129	547.596	14.8564
11.2193	554.803	14.9248
11.225	557.544	14.9932
11.2305	563.316	15.0615
11.2365	570.29	15.1299
11.2424	569.581	15.1982
11.2471	566.125	15.2666
11.2531	568.152	15.335
11.2582	567.3678	15.40332
11.26461	569.06	15.47168
11.26968	573.197	15.54
11.2756	580.2605	15.6084
11.2818	583.58	15.6768
11.2876	588.3291	15.7451
11.29293	598.14	15.8135
11.2994	600.1413	15.8818
11.3057	596.194	15.9502
11.30958	597.019	16.0186
11.315	594.964	16.0869
11.3221	595.95	16.1553
11.3273	597.621	16.2236
11.3335	604.294	16.292
11.3383	607.879	16.3604
11.3434	613.779	16.4287
11.3501	623.045	16.49707
11.3555	623.709	16.56543
11.3616	625.486	16.6338
11.367	625.086	16.7021
11.37248	622.325	16.7705
11.3786	624.178	16.8389
11.3843	625.408	16.9072
11.3894	627.399	16.9756
11.3947	631.696	17.0439
11.4006	638.097	17.1123
11.4067	645.773	17.1807
11.4129	650.233	17.249
11.4179	652.352	17.3174
11.4244	653.3642	17.3857
11.43003	647.973	17.4541
11.4359	651.396	17.5225
11.4412	652.7655	17.59082
11.4468	652.071	17.65918
11.45308	653.274	17.7275
11.4597	660.726	17.7959
11.464	669.951	17.8643
11.4701	672.5473	17.9326
11.475	677.6795	18.001
11.4791	680.63	18.0693
11.4866	678.481	18.1377
11.493	677.727	18.2061
11.4972	677.674	18.2744
11.5034	676.688	18.3428
11.5095	675.352	18.4111
11.5147	682.035	18.4795
11.5207	691.113	18.5479
11.5266	694.119	18.6162
11.5323	700.205	18.68457
11.53932	705.822	18.75293
11.5432	705.168	18.8213
11.5493	704.441	18.8896
11.5555	703.647	18.958
11.5603	702.001	19.0264
11.5663	698.842	19.0947
11.5731	705.953	19.1631
11.57654	714.026	19.2314
11.5829	717.392	19.2998
11.5889	721.927	19.3682
11.5955	726.862	19.4365
11.6009	729.34	19.5049
11.6061	729.591	19.5732
11.612	728.846	19.6416
11.6174	726.756	19.71
11.62258	722.089	19.77832
11.6289	725.201	19.84668
11.6351	733.596	19.915
[...]
15.182	933.311	62.4834
15.1832	935.285	62.5127
15.1867	931.993	62.542
15.1895	939.736	62.5713
15.1916	929.8714	62.6006
15.1949	935.782	62.6299
15.1968	931.715	62.65918
15.1985	943.339	62.6885
15.2008	929.346	62.7178
15.2038	936.274	62.74707
15.2065	929.241	62.7764
15.2081	938.931	62.8057
15.2112	932.3551	62.835
15.214	935.086	62.8643
15.215	935.382	62.8936
15.2186	934.403	62.9229
15.2213	934.63	62.9521
15.2226	930.355	62.9814
15.22521	938.694	63.0107
15.2282	929.414	63.04
15.2319	940.074	63.0693
15.234	928.442	63.0986
15.2357	940.5506	63.12793
15.2378	927.892	63.1572
15.2399	940.769	63.1865
15.2428	930.149	63.21582
15.2447	938.595	63.2451
15.2479	928.735	63.2744
15.2506	934.71	63.3037
15.2525	933.446	63.333
15.2561	933.018	63.3623
15.2571	934.939	63.3916
15.26	934.448	63.4209
15.2625	935.382	63.4502
15.2644	925.208	63.4795
15.2672	940.742	63.5088
15.2703	929.704	63.5381
15.2717	940.69	63.5674
15.2744	922.925	63.59668
15.2775	939.8988	63.626
15.2804	926.894	63.6553
15.281	939.717	63.68457
15.2844	925.106	63.7139
15.2865	939.064	63.7432
15.2905	931.1792	63.7725
15.2914	934.327	63.8018
15.2935	928.848	63.8311
15.296	934.324	63.8604
15.2996	935.238	63.8896
15.3011	931.163	63.9189
15.3032	933.721	63.9482
15.3072	929.9281	63.9775
15.3095	937.45	64.0068
15.3116	925.697	64.0361
15.3132	938.44	64.06543
15.3157	928.353	64.0947
15.3189	939.821	64.124
15.3213	926.439	64.15332
15.3232	937.4563	64.1826
15.3262	928.557	64.2119
15.3287	937.026	64.2412
15.33031	931.0838	64.2705
15.33246	935.708	64.2998
15.336	931.2785	64.3291
15.3381	929.942	64.3584
15.3409	934.13	64.3877
15.3422	929.489	64.417
15.3454	935.64	64.4463
15.3473	926.699	64.4756
15.3499	936.043	64.5049
15.3522	925.526	64.53418
15.3545	935.508	64.5635
15.3579	927.097	64.5928
15.3599	939.419	64.62207
15.3622	927.9165	64.6514
15.36461	932.031	64.6807
15.3674	928.968	64.71
15.3687	933.753	64.7393
15.3725	930.53	64.7686
15.3757	928.273	64.7979
15.3775	933.525	64.8271
15.3781	928.367	64.8564
15.3823	933.512	64.8857
15.3846	922.758	64.915
15.3866	938.571	64.9443
15.3893	925.191	64.9736
15.3921	935.3858	65.00293
15.3957	920.747	65.0322
15.396	937.177	65.0615
15.3995	922.928	65.09082
15.401	934.671	65.1201
15.4033	924.618	65.1494
15.4068	933.849	65.1787
15.4099	925.725	65.208
15.41156	929.143	65.2373
15.4131	927.529	65.2666
15.4159	926.925	65.2959
15.4179	930.229	65.3252
15.4211	922.152	65.3545
15.42695	-111.143	65.3838
15.4313	-48.2851	65.4131
15.4305	-42.3065	65.4424
15.4328	-49.43	65.47168
15.4347	-33.7441	65.501
15.4371	-52.5897	65.5303
15.43942	-36.6211	65.55957
15.4415	-49.0486	65.5889
15.44387	-37.4682	65.6182
15.446	-50.2257	65.6475
15.44928	-39.5499	65.6768
15.4515	-42.4456	65.7061
15.4529	-43.7632	65.7354
15.45581	-44.6405	65.7646
15.4582	-45.0451	65.7939
15.4597	-38.8081	65.8232
15.4638	-48.3665	65.8525
15.46513	-39.4449	65.8818
15.4673	-48.7176	65.9111
15.4701	-36.4251	65.94043
15.4724	-50.40551	65.9697
15.4745	-39.23727	65.999
15.4775	-45.8226	66.02832
15.4802	-37.85741	66.0576
15.4818	-48.1196	66.0869
15.4834	-42.78334	66.1162
15.4877	-45.1305	66.1455
15.48982	-41.9532	66.1748
15.493	-43.9604	66.2041
15.4938	-43.9243	66.2334
15.4963	-40.6672	66.2627
15.5006	-49.271	66.292
15.5026	-38.94117	66.3213
15.50529	-46.54488	66.3506
15.5074	-35.5134	66.3799
15.5087	-48.9731	66.40918
15.5127	-36.0881	66.4385
15.514	-48.4439	66.4678
15.5165	-39.3615	66.49707
15.5189	-47.16898	66.5264
15.5217	-37.48003	66.5557
15.5241	-44.5929	66.585
15.5266	-43.89175	66.6143
15.5289	-44.2658	66.6436
15.5314	-43.1007	66.6729
15.5335	-41.1726	66.7021
15.5357	-48.1327	66.7314
15.53942	-36.9112	66.7607
15.5402	-46.2757	66.79
15.54416	-37.6678	66.8193
15.54519	-47.9302	66.8389

File: 0.254_hd_dimension_typei_4545_r(4).dat
MTS793|BTW|ENU|1|2|.|/|:|1|0|0|A

Data Header:			0.254_hd_dimension_typei_4545_r0			Time:	20.0173	s	4/15/2019 3:15:31 PM
Data Acquisition:	Timed
Station Name:	ft40.cfg
Test File Name:	monotonic_0.2540_typei_hd_4545_dimension.tst
Displacement	Force	Running Time
mm	N	s
9.98073	-122.553	0.0224609
9.98217	-122.89	0.0908203
9.987998	-120.723	0.15918
9.9943	-117.002	0.227539
10.00036	-113.958	0.295898
10.00472	-114.275	0.364258
10.0111	-107.84	0.432617
10.0156	-98.2769	0.500977
10.0221	-94.70166	0.569336
10.02757	-94.696	0.637695
10.0327	-87.6327	0.706055
10.0392	-90.5895	0.774414
10.0446	-91.9099	0.842773
10.0517	-88.3184	0.911133
10.0554	-83.6134	0.979492
10.062	-83.7714	1.04785
10.0676	-79.033	1.11621
10.0739	-68.5992	1.18457
10.0795	-64.04554	1.25293
10.0851	-61.7594	1.32129
10.0911	-56.5046	1.38965
10.0965	-56.2084	1.45801
10.1016	-56.1633	1.52637
10.1068	-54.8768	1.59473
10.1126	-53.9177	1.66309
10.119	-52.2164	1.73145
10.1248	-47.7262	1.7998
10.1307	-38.366	1.86816
10.1365	-34.7609	1.93652
10.1414	-31.0506	2.00488
10.147	-25.5362	2.07324
10.15239	-24.2128	2.1416
10.1585	-20.8201	2.20996
10.16437	-20.8392	2.27832
10.1705	-20.7805	2.34668
10.1761	-22.1674	2.41504
10.1822	-17.6825	2.4834
10.1863	-10.0908	2.55176
10.1922	-4.18496	2.62012
10.198	0.3397949	2.68848
10.2034	4.34427	2.75684
10.2092	8.05436	2.8252
10.2148	11.9243	2.89355
10.2221	12.6685	2.96191
10.2272	12.34821	3.03027
10.2333	11.3844	3.09863
10.2376	12.382	3.16699
10.2445	21.58197	3.23535
10.2488	22.6719	3.30371
10.2563	32.8665	3.37207
10.2617	38.0527	3.44043
10.2668	40.3016	3.50879
10.2725	46.7038	3.57715
10.278	47.6709	3.64551
10.2838	47.0746	3.71387
10.2898	44.1713	3.78223
10.2958	47.7855	3.85059
10.30007	52.8144	3.91895
10.3071	56.5859	3.9873
10.3124	61.2265	4.05566
10.3174	69.6911	4.12402
10.325	74.4108	4.19238
10.3289	77.7071	4.26074
10.3352	83.1497	4.3291
10.3402	83.0987	4.39746
10.3459	79.9721	4.46582
10.3533	80.3306	4.53418
10.3582	88.3112	4.60254
10.36377	91.3732	4.6709
10.3698	94.4845	4.73926
10.375	100.836	4.80762
10.3802	105.652	4.87598
10.3864	112.523	4.94434
10.3934	115.895	5.0127
10.3979	118.893	5.08105
10.4042	114.439	5.14941
10.4096	115.988	5.21777
10.4152	120.724	5.28613
10.4209	120.6027	5.35449
10.4268	121.87	5.42285
10.4318	131.079	5.49121
10.4383	136.616	5.55957
10.4435	143.17	5.62793
10.4492	149.23	5.69629
10.45387	152.736	5.76465
10.4606	150.83	5.83301
10.4649	149.798	5.90137
10.4726	153.779	5.96973
10.4773	154.184	6.03809
10.4829	155.432	6.10645
10.49	159.049	6.1748
10.4957	164.74	6.24316
10.501	174.35	6.31152
10.5062	178.717	6.37988
10.51152	184.375	6.44824
10.5162	183.831	6.5166
10.5228	184.923	6.58496
10.5288	188.048	6.65332
10.5344	185.41	6.72168
10.5411	189.188	6.79004
10.5462	192.504	6.8584
10.5518	196.415	6.92676
10.5569	206.651	6.99512
10.5641	212.572	7.06348
10.5689	215.633	7.13184
10.5749	215.095	7.2002
10.58	219.402	7.26855
10.5856	223.297	7.33691
10.592	219.56	7.40527
10.5974	221.492	7.47363
10.6034	225.948	7.54199
10.6088	228.985	7.61035
10.6141	235.278	7.67871
10.6201	243.456	7.74707
10.6252	247.318	7.81543
10.6314	247.48	7.88379
10.6366	252.55	7.95215
10.6434	258.389	8.02051
10.6485	254.192	8.08887
10.6536	254.573	8.15723
10.65982	258.0311	8.22559
10.666	260.227	8.29395
10.6711	264.9502	8.3623
10.6772	273.308	8.43066
10.6828	277.442	8.49902
10.6881	279.477	8.56738
10.6947	284.973	8.63574
10.7003	290.008	8.7041
10.7061	287.225	8.77246
10.7107	286.453	8.84082
10.71609	289.758	8.90918
10.7219	291.616	8.97754
10.7281	295.907	9.0459
10.7341	302.555	9.11426
10.7394	308.281	9.18262
10.7449	309.668	9.25098
10.7504	316.423	9.31934
10.757	322.654	9.3877
10.7618	322.894	9.45605
10.76828	321.845	9.52441
10.7735	322.278	9.59277
10.779	321.829	9.66113
10.78545	326.112	9.72949
10.7911	330.03	9.79785
10.79724	337.517	9.86621
10.8025	340.613	9.93457
10.808	348.277	10.00293
10.81345	353.11	10.0713
10.8197	355.1196	10.1396
10.825	356.072	10.208
10.8305	355.143	10.2764
10.836	355.132	10.3447
10.8421	359.538	10.4131
10.8475	362.249	10.4814
10.8538	363.86	10.5498
10.85934	369.589	10.6182
10.8656	377.65	10.6865
10.871	384.836	10.7549
10.8772	386.489	10.8232
10.8815	390.6691	10.8916
10.8875	389.329	10.96
10.8931	388.758	11.02832
10.8984	389.706	11.09668
10.9051	392.415	11.165
10.9104	395.147	11.2334
10.9176	397.23	11.3018
10.9227	406.07	11.3701
10.92725	413.663	11.4385
10.9337	416.11	11.5068
10.9381	420.948	11.5752
10.9434	424.833	11.6436
10.9502	421.673	11.7119
10.9559	421.808	11.7803
10.9631	423.19	11.8486
10.9677	420.911	11.917
10.9738	423.773	11.9854
10.9783	432.991	12.0537
10.9843	440.356	12.12207
10.9895	444.431	12.19043
10.9961	449.314	12.2588
11.0006	452.761	12.3271
11.0071	452.077	12.3955
11.0129	452.18	12.4639
11.0189	452.554	12.5322
11.0235	450.966	12.6006
11.0297	451.301	12.6689
11.0354	458.383	12.7373
11.0429	467.255	12.8057
11.0461	469.755	12.874
11.0532	476.221	12.9424
11.0589	482.6619	13.0107
11.0638	482.3353	13.0791
11.07	483.338	13.1475
11.0746	484.677	13.21582
11.0827	482.247	13.28418
11.0881	482.3382	13.3525
11.0928	487.339	13.4209
11.098	496.1524	13.4893
11.1041	498.25	13.5576
11.1093	504.481	13.626
11.1153	509.961	13.6943
11.1214	515.122	13.7627
11.1272	515.47	13.8311
11.1314	517.3822	13.8994
11.1384	511.749	13.9678
11.1427	513.002	14.0361
11.1495	516.855	14.1045
11.15571	521.646	14.1729
11.1613	524.361	14.2412
11.1661	532.622	14.30957
11.1722	537.314	14.37793
11.1782	543.282	14.4463
11.183	546.56	14.5146
11.1896	545.776	14.583
11.195	543.165	14.6514
11.2008	541.102	14.7197
11.2063	546.332	14.7881
11.2122	547.336	14.8564
11.218	550.7959	14.9248
11.223	557.221	14.9932
11.229	563.191	15.0615
11.2353	570.234	15.1299
11.2403	575.024	15.1982
11.246	573.9931	15.2666
11.2525	572.481	15.335
11.2575	571.972	15.40332
11.2635	574.654	15.47168
11.2696	572.6394	15.54
11.2759	577.039	15.6084
11.2803	581.82	15.6768
11.28592	587.283	15.7451
11.2922	594.742	15.8135
11.2974	600.627	15.8818
11.3042	603.409	15.9502
11.3081	600.46	16.0186
11.31488	601.762	16.0869
11.3202	603.409	16.1553
11.3258	599.65	16.2236
11.3325	603.422	16.292
11.337	610.013	16.3604
11.3436	611.298	16.4287
11.34886	619.875	16.49707
11.3544	627.643	16.56543
11.3596	630.063	16.6338
11.3659	628.3858	16.7021
11.3725	629.754	16.7705
11.3773	633.01	16.8389
11.3836	627.914	16.9072
11.3892	628.061	16.9756
11.3956	634.687	17.0439
11.3998	635.981	17.1123
11.4061	644.309	17.1807
11.411	651.418	17.249
11.4175	655.582	17.3174
11.4231	654.22	17.3857
11.4282	657.806	17.4541
11.434	659.727	17.5225
11.4397	656.5531	17.59082
11.4452	654.943	17.65918
11.4518	658.485	17.7275
11.4565	661.236	17.7959
11.4624	667.066	17.8643
11.46823	672.906	17.9326
11.4746	678.456	18.001
11.4798	681.159	18.0693
11.48517	683.827	18.1377
11.4907	686.831	18.2061
11.4964	683.848	18.2744
11.5034	684.196	18.3428
11.5073	682.685	18.4111
11.5132	684.79	18.4795
11.5204	689.218	18.5479
11.52535	694.945	18.6162
11.5319	700.233	18.68457
11.5369	704.026	18.75293
11.5426	709.706	18.8213
11.5485	710.707	18.8896
11.554	710.704	18.958
11.5594	708.875	19.0264
11.56563	709.164	19.0947
11.571	710.25	19.1631
11.5764	714.047	19.2314
11.5828	717.194	19.2998
11.588	719.143	19.3682
11.5936	726.783	19.4365
11.5999	734.269	19.5049
11.6056	734.046	19.5732
11.611	734.5946	19.6416
11.6165	737.065	19.71
11.6222	733.766	19.77832
11.6282	734.138	19.84668
11.6341	736.387	19.915
11.6398	739.835	19.9834
[...]
15.3504	948.559	64.5146
15.3548	943.131	64.5635
15.3585	934.9696	64.6123
15.3633	934.009	64.6611
15.3658	945.603	64.71
15.3711	949.476	64.7588
15.3744	942.208	64.8076
15.3784	937.507	64.8564
15.3827	938.164	64.9053
15.3872	947.1756	64.9541
15.3903	947.5155	65.00293
15.39441	939.347	65.0518
15.3995	935.447	65.1006
15.4037	943.336	65.1494
15.408	948.805	65.1982
15.411	941.532	65.24707
15.4152	932.79	65.2959
15.4196	935	65.3447
15.4234	945.895	65.3936
15.4274	948.2998	65.4424
15.4322	940.341	65.4912
15.4352	936.22	65.54
15.4393	940.853	65.5889
15.4448	946.6167	65.6377
15.4484	944.34	65.6865
15.4521	934.751	65.7354
15.4556	937.821	65.78418
15.46028	945.9895	65.833
15.4639	949.051	65.8818
15.4684	941.009	65.9307
15.4726	932.574	65.9795
15.47642	938.711	66.02832
15.4806	948.205	66.0771
15.4846	946.661	66.126
15.4877	938.592	66.1748
15.4925	935.95	66.2236
15.4957	940.901	66.2725
15.49963	947.455	66.3213
15.5048	940.891	66.3701
15.5084	934.635	66.4189
15.5138	936.498	66.4678
15.5167	947.3316	66.5166
15.521	947.622	66.56543
15.5241	938.828	66.6143
15.5291	934.754	66.6631
15.5332	942.129	66.7119
15.5374	948.71	66.7607
15.542	945.732	66.80957
15.5456	935.024	66.8584
15.55	936.5	66.9072
15.554	943.52	66.9561
15.557	946.078	67.0049
15.56215	937.617	67.0537
15.566	930.915	67.1025
15.5699	937.909	67.1514
15.5733	946.6925	67.2002
15.5777	942.656	67.249
15.5834	933.635	67.2979
15.5855	931.549	67.34668
15.5907	941.672	67.3955
15.5946	947.761	67.4443
15.5984	941.45	67.4932
15.6024	935.605	67.542
15.6064	940.014	67.59082
15.6107	943.929	67.6396
15.6142	943.369	67.6885
15.6187	936.5686	67.7373
15.6234	933.142	67.7861
15.6267	940.354	67.835
15.6316	946.212	67.8838
15.6345	941.647	67.9326
15.6404	932.017	67.9814
15.6433	932.381	68.0303
15.6472	941.954	68.0791
15.65097	944.639	68.12793
15.6554	936.244	68.1768
15.6587	934.3421	68.2256
15.6637	940.33	68.2744
15.6672	943.7818	68.3232
15.6713	941.608	68.37207
15.6762	933.903	68.4209
15.6799	933.372	68.4697
15.684	942.932	68.5186
15.6872	944.465	68.5674
15.6922	937.29	68.6162
15.69529	929.833	68.665
15.6991	934.109	68.7139
15.7039	943.677	68.7627
15.708	942.196	68.8115
15.7126	933.425	68.8604
15.7158	933.118	68.90918
15.7209	940.42	68.958
15.724	941.994	69.0068
15.7288	939.4668	69.0557
15.7313	930.996	69.1045
15.7376	935.042	69.15332
15.7413	943.638	69.2021
15.7448	941.801	69.251
15.74898	932.759	69.2998
15.7528	930.084	69.3486
15.7568	934.539	69.3975
15.762	940.3302	69.4463
15.7655	934.822	69.4951
15.7695	931.71	69.5439
15.7742	932.674	69.5928
15.7775	938.244	69.6416
15.7815	938.481	69.69043
15.7853	930.368	69.7393
15.7901	926.827	69.7881
15.7932	931.904	69.8369
15.7982	937.207	69.8857
15.8021	932.814	69.93457
15.8119	-45.2357	69.9834
15.8115	-46.7713	70.0322
15.8147	-40.0656	70.0811
15.81958	-37.8311	70.1299
15.82338	-42.4673	70.1787
15.82688	-49.4101	70.2275
15.8308	-42.0332	70.2764
15.8352	-35.9558	70.3252
15.8388	-42.0439	70.374
15.844	-47.85421	70.4229
15.8478	-49.3385	70.47168
15.8515	-40.2583	70.5205
15.8556	-37.7344	70.5693
15.8586	-41.4978	70.6182
15.8641	-47.7452	70.667
15.8668	-44.8261	70.71582
15.8722	-38.7784	70.7646
15.876	-39.4301	70.8135
15.87969	-44.8822	70.8623
15.8839	-45.4478	70.9111
15.8876	-39.1254	70.96
15.8928	-35.8801	71.0088
15.8951	-44.1071	71.0576
15.9	-48.0844	71.1064
15.904	-45.06781	71.1553
15.9082	-39.6245	71.2041
15.9125	-40.21339	71.25293
15.9154	-46.08976	71.3018
15.92061	-47.6488	71.3506
15.9254	-43.6999	71.3994
15.9284	-38.7523	71.4482
15.9328	-42.9396	71.49707
15.9368	-48.3505	71.5459
15.9408	-43.6008	71.5947
15.9448	-38.4505	71.6436
15.9493	-34.94878	71.6924
15.9534	-46.7683	71.7412
15.95691	-48.04837	71.79
15.9601	-36.0463	71.8291