Folder: Stress_Strain_Analysis_Tools/data/processed_data_files/tensile (part 31)

File: 0.254_solid_dimension_typei_090_r(4).dat
MTS793|BTW|ENU|1|2|.|/|:|1|0|0|A

Data Header:			0.254_solid_dimension_typei_090_r0			Time:	20.0195	s	4/15/2019 2:21:31 PM
Data Acquisition:	Timed
Station Name:	ft40.cfg
Test File Name:	monotonic_0.2540_typei_solid_090_dimension.tst
Displacement	Force	Running Time
mm	N	s
9.97107	-122.511	0.0224609
9.97484	-121.605	0.0908203
9.97952	-113.63	0.15918
9.9871	-108.7072	0.227539
9.99347	-104.956	0.295898
9.99836	-99.1898	0.364258
10.0042	-93.1081	0.432617
10.0088	-90.6263	0.500977
10.0152	-88.8958	0.569336
10.0203	-86.7339	0.637695
10.0278	-85.8493	0.706055
10.0325	-82.5033	0.774414
10.038	-75.0847	0.842773
10.04429	-71.1482	0.911133
10.0502	-67.2809	0.979492
10.0551	-59.8893	1.04785
10.0601	-51.8938	1.11621
10.0659	-51.0834	1.18457
10.0726	-48.4972	1.25293
10.0788	-45.959	1.32129
10.0829	-45.4396	1.38965
10.0895	-42.8588	1.45801
10.0957	-36.2486	1.52637
10.09965	-34.383	1.59473
10.1059	-30.3643	1.66309
10.1118	-20.7399	1.73145
10.1177	-12.3369	1.7998
10.1228	-11.0529	1.86816
10.1287	-7.88203	1.93652
10.1345	-1.69175	2.00488
10.1389	-5.15251	2.07324
10.1461	-2.08669	2.1416
10.1517	3.08309	2.20996
10.1571	5.647325	2.27832
10.1621	8.677907	2.34668
10.16928	17.54068	2.41504
10.1739	27.30596	2.4834
10.1807	28.9014	2.55176
10.1858	35.706	2.62012
10.1919	39.99493	2.68848
10.1974	39.4234	2.75684
10.203	42.3618	2.8252
10.2095	46.888	2.89355
10.21425	46.2978	2.96191
10.2201	48.78693	3.03027
10.2257	59.1718	3.09863
10.2307	67.3645	3.16699
10.2371	69.1568	3.23535
10.2424	78.242	3.30371
10.2483	82.6203	3.37207
10.2538	83.2378	3.44043
10.2596	83.6675	3.50879
10.2656	88.7036	3.57715
10.2714	88.0507	3.64551
10.2764	89.3282	3.71387
10.2823	98.1989	3.78223
10.2876	105.151	3.85059
10.2939	110.957	3.91895
10.2994	116.653	3.9873
10.305	123.238	4.05566
10.3117	127.479	4.12402
10.31677	128.641	4.19238
10.3228	129.508	4.26074
10.3276	127.357	4.3291
10.3345	132.745	4.39746
10.3396	138.179	4.46582
10.34616	142.499	4.53418
10.3505	150.192	4.60254
10.3566	157.434	4.6709
10.36269	162.032	4.73926
10.36722	168.966	4.80762
10.3743	172.828	4.87598
10.3801	171.645	4.94434
10.3841	171.27	5.0127
10.39043	174.432	5.08105
10.396	179.091	5.14941
10.4027	181.804	5.21777
10.4081	190.859	5.28613
10.4137	196.6898	5.35449
10.4185	201.473	5.42285
10.4251	210.617	5.49121
10.4312	215.261	5.55957
10.43685	212.341	5.62793
10.4426	215.495	5.69629
10.4481	218.247	5.76465
10.4545	220.656	5.83301
10.4595	222.6805	5.90137
10.4646	230.14	5.96973
10.4709	237.14	6.03809
10.4763	241.813	6.10645
10.482	251.389	6.1748
10.4881	254.5105	6.24316
10.4932	254.168	6.31152
10.4994	257.274	6.37988
10.5051	261.915	6.44824
10.5109	261.049	6.5166
10.5152	263.299	6.58496
10.5223	270.108	6.65332
10.5278	274.761	6.72168
10.5324	280.585	6.79004
10.5395	289.492	6.8584
10.5448	295.918	6.92676
10.54987	295.97	6.99512
10.5567	299.249	7.06348
10.5605	305.108	7.13184
10.5676	304.32	7.2002
10.57363	303.732	7.26855
10.5785	310.311	7.33691
10.5857	315.157	7.40527
10.5898	320.788	7.47363
10.59586	327.424	7.54199
10.6011	334.457	7.61035
10.6082	334.293	7.67871
10.6132	342.373	7.74707
10.619	348.598	7.81543
10.6245	345.576	7.88379
10.6303	347.463	7.95215
10.6366	350.937	8.02051
10.6405	352.535	8.08887
10.6474	358.73	8.15723
10.6533	366.31	8.22559
10.6588	372.571	8.29395
10.6637	374.895	8.3623
10.6705	382.82	8.43066
10.6745	388.007	8.49902
10.6819	387.864	8.56738
10.6864	388.447	8.63574
10.6914	391.469	8.7041
10.69792	391.684	8.77246
10.7046	396.821	8.84082
10.71	403.466	8.90918
10.7146	408.711	8.97754
10.7215	414.104	9.0459
10.7279	422.737	9.11426
10.7327	428.852	9.18262
10.7391	429.705	9.25098
10.7433	432.526	9.31934
10.7494	432.116	9.3877
10.7557	432.794	9.45605
10.7607	436.748	9.52441
10.7671	440.937	9.59277
10.7727	445.847	9.66113
10.778	451.824	9.72949
10.784	463.3	9.79785
10.78891	467.122	9.86621
10.7946	470.951	9.93457
10.8003	474.7197	10.00293
10.8069	472.342	10.0713
10.8126	474.01	10.1396
10.81832	478.521	10.208
10.8234	478.498	10.2764
10.8297	481.495	10.3447
10.8354	489.836	10.4131
10.8404	499.268	10.4814
10.8471	503.522	10.5498
10.8529	510.9024	10.6182
10.8576	513.645	10.6865
10.8632	512.999	10.7549
10.8688	516.015	10.8232
10.875	517.427	10.8916
10.87997	516.358	10.96
10.8863	517.325	11.02832
10.8925	525.485	11.09668
10.8975	536.4469	11.165
10.9038	539.869	11.2334
10.9091	547.343	11.3018
10.9145	552.516	11.3701
10.9208	553.81	11.4385
10.9272	555.872	11.5068
10.9319	557.26	11.5752
10.9375	553.872	11.6436
10.943	555.683	11.7119
10.9476	565.787	11.7803
10.9549	570.437	11.8486
10.9606	575.269	11.917
10.9663	584.464	11.9854
10.9722	591.688	12.0537
10.9772	592.8443	12.12207
10.9834	594.679	12.19043
10.9892	597.636	12.2588
10.9941	591.853	12.3271
10.99989	594.086	12.3955
11.0066	603.16	12.4639
11.0122	605.444	12.5322
11.0177	609.194	12.6006
11.0229	618.648	12.6689
11.0294	624.821	12.7373
11.0332	632.344	12.8057
11.0406	634.062	12.874
11.0459	636.456	12.9424
11.0513	631.854	13.0107
11.0563	632.92	13.0791
11.0638	638.5976	13.1475
11.0684	641.084	13.21582
11.0737	645.693	13.28418
11.07991	652.866	13.3525
11.086	660.927	13.4209
11.0911	667.22	13.4893
11.0976	671.612	13.5576
11.1028	673.153	13.626
11.109	671.878	13.6943
11.1144	671.78	13.7627
11.12	674.669	13.8311
11.1264	676.379	13.8994
11.131	681.29	13.9678
11.1362	687.043	14.0361
11.1437	694.735	14.1045
11.1472	701.489	14.1729
11.1549	706.353	14.2412
11.1607	707.714	14.30957
11.1648	710.6424	14.37793
11.171	710.243	14.4463
11.1771	712.326	14.5146
11.182	712.6087	14.583
11.1877	715.037	14.6514
11.1951	721.715	14.7197
11.1995	728.862	14.7881
11.2054	736.172	14.8564
11.2105	741.384	14.9248
11.2161	742.628	14.9932
11.2218	745.069	15.0615
11.2281	749.363	15.1299
11.2336	750.508	15.1982
11.2393	748.051	15.2666
11.2444	751.951	15.335
11.2505	755.108	15.40332
11.2571	760.636	15.47168
11.2619	766.9187	15.54
11.26768	773.172	15.6084
11.27384	776.848	15.6768
11.2801	782.227	15.7451
11.2849	786.451	15.8135
11.291	784.683	15.8818
11.29722	786.055	15.9502
11.3024	788.241	16.0186
11.3077	786.589	16.0869
11.3144	792.685	16.1553
11.3189	799.196	16.2236
11.324	803.081	16.292
11.3307	808.543	16.3604
11.3365	814.956	16.4287
11.3419	820.8772	16.49707
11.3483	819.231	16.56543
11.3538	821.751	16.6338
11.3595	820.361	16.7021
11.3637	819.889	16.7705
11.3696	823.782	16.8389
11.3758	831.369	16.9072
11.3824	833.053	16.9756
11.388	836.64	17.0439
11.3937	847.227	17.1123
11.399	851.88	17.1807
11.40467	852.163	17.249
11.4106	854.849	17.3174
11.415	854.446	17.3857
11.4205	853.285	17.4541
11.4279	856.9248	17.5225
11.4333	862.268	17.59082
11.43734	860.314	17.65918
11.4458	866.126	17.7275
11.4507	877.273	17.7959
11.4558	882.292	17.8643
11.46111	881.745	17.9326
11.4673	885.9	18.001
11.4722	885.918	18.0693
11.4792	886.276	18.1377
11.4846	886.396	18.2061
11.4898	888.549	18.2744
11.4966	889.377	18.3428
11.5007	893.347	18.4111
11.5069	903.7121	18.4795
11.5132	907.207	18.5479
11.5178	911.868	18.6162
11.5233	915.632	18.68457
11.5308	915.971	18.75293
11.53522	914.752	18.8213
11.5403	914.5733	18.8896
11.5462	916.093	18.958
11.5521	916.746	19.0264
11.5584	919.386	19.0947
11.5643	929.479	19.1631
11.5689	933.6416	19.2314
11.5746	937.267	19.2998
11.5805	942.925	19.3682
11.5867	943.713	19.4365
11.5927	944.491	19.5049
11.5982	944.361	19.5732
11.6034	942.933	19.6416
11.6099	940.301	19.71
11.6155	946.042	19.77832
11.6212	949.244	19.84668
11.6261	955.617	19.915
11.6326	960.92	19.9834
[...]
13.6007	988.517	43.59668
13.6032	995.836	43.626
13.6049	984.576	43.6553
13.6076	999.367	43.68457
13.6097	988.959	43.7139
13.6126	996.324	43.7432
13.6141	984.419	43.7725
13.6172	997.799	43.8018
13.6191	988.114	43.8311
13.621	995.895	43.8604
13.6247	990.078	43.8896
13.6274	995.563	43.9189
13.6299	991.335	43.9482
13.631	991.235	43.9775
13.6345	995.539	44.0068
13.6374	989.401	44.0361
13.6395	994.736	44.06543
13.641	987.474	44.0947
13.6451	998.169	44.124
13.6469	986.407	44.15332
13.6489	997.88	44.1826
13.6507	987.746	44.2119
13.6538	998.376	44.2412
13.6565	985.268	44.2705
13.6589	995.3324	44.2998
13.6621	987.3822	44.3291
13.66334	995.748	44.3584
13.6669	986.902	44.3877
13.6682	994.326	44.417
13.6714	993.1283	44.4463
13.6734	989.898	44.4756
13.6761	989.0658	44.5049
13.6785	988.477	44.53418
13.6807	995.922	44.5635
13.6832	986.516	44.5928
13.6846	994.466	44.62207
13.6878	987.722	44.6514
13.6916	994.805	44.6807
13.6934	985.815	44.71
13.69617	994.053	44.7393
13.6973	988.477	44.7686
13.6995	994.581	44.7979
13.702	987.651	44.8271
13.7048	992.141	44.8564
13.7078	989.099	44.8857
13.71069	989.416	44.915
13.7133	991.052	44.9443
13.7146	991.445	44.9736
13.7167	993.666	45.00293
13.7195	988.259	45.0322
13.7225	995.113	45.0615
13.7245	988.059	45.09082
13.7279	993.028	45.1201
13.7299	985.515	45.1494
13.7327	994.969	45.1787
13.7338	984.6532	45.208
13.7363	989.4198	45.2373
13.7388	985.89	45.2666
13.74186	993.294	45.2959
13.7439	987.894	45.3252
13.7469	987.247	45.3545
13.74915	988.867	45.3838
13.7509	987.7666	45.4131
13.7534	991.0318	45.4424
13.7564	982.925	45.47168
13.7596	994.352	45.501
13.7609	986.272	45.5303
13.7641	991.902	45.55957
13.7662	980.912	45.5889
13.7683	993.036	45.6182
13.7717	982.011	45.6475
13.7734	991.245	45.6768
13.7757	983.7608	45.7061
13.7784	991.407	45.7354
13.7806	983.62	45.7646
13.7837	988.577	45.7939
13.7861	988.105	45.8232
13.7876	987.438	45.8525
13.7904	988.478	45.8818
13.7938	984.849	45.9111
13.7956	991.9093	45.94043
13.7977	980.3067	45.9697
13.80071	990.298	45.999
13.80276	982.886	46.02832
13.8058	993.191	46.0576
13.80774	979.609	46.0869
13.8102	991.3	46.1162
13.8115	979.744	46.1455
13.8159	989.58	46.1748
13.8186	978.748	46.2041
13.8213	990.4856	46.2334
13.8227	984.148	46.2627
13.8252	986.093	46.292
13.8267	980.711	46.3213
13.8292	984.3327	46.3506
13.8327	984.3114	46.3799
13.8354	980.883	46.40918
13.8363	984.685	46.4385
13.8394	980.057	46.4678
13.8414	986.472	46.49707
13.8452	973.176	46.5264
13.8467	984.081	46.5557
13.8493	975.874	46.585
13.8513	981.638	46.6143
13.8542	971.888	46.6436
13.8558	975.144	46.6729
13.8644	-48.0738	46.7021
13.8647	-33.4176	46.7314
13.8657	-46.86245	46.7607
13.8681	-41.189	46.79
13.8698	-41.5417	46.8193
13.873	-44.1255	46.8486
13.8746	-40.0104	46.87793
13.8763	-45.3073	46.9072
13.8783	-40.617	46.9365
13.8814	-46.8094	46.96582
13.8843	-36.0924	46.9951
13.8862	-46.31469	47.0244
13.8896	-40.1787	47.0537
13.8908	-49.6351	47.083
13.8938	-36.7975	47.1123
13.8964	-46.3986	47.1416
13.8992	-42.7064	47.1709
13.9006	-42.3792	47.2002
13.9037	-42.3441	47.2295
13.9058	-44.62141	47.2588
13.9092	-45.5065	47.2881
13.9109	-38.4592	47.3174
13.9139	-44.9605	47.34668
13.9158	-38.1049	47.376
13.91761	-48.1427	47.4053
13.9215	-36.7875	47.43457
13.9231	-48.3029	47.4639
13.9255	-36.6146	47.4932
13.9269	-47.3532	47.5225
13.9301	-36.0146	47.5518
13.9324	-47.84956	47.5811
13.934	-39.4687	47.6104
13.9376	-45.0456	47.6396
13.9405	-41.9462	47.6689
13.9438	-41.7165	47.6982
13.944	-42.8862	47.7275
13.9473	-38.966	47.7568
13.9497	-46.5972	47.7861
13.9523	-39.1992	47.81543
13.9551	-46.6755	47.8447
13.9571	-35.651	47.874
13.9601	-50.5397	47.90332
13.9614	-36.5322	47.9326
13.9639	-47.0085	47.9619

File: 0.254_solid_dimension_typei_090_r(5).dat
MTS793|BTW|ENU|1|2|.|/|:|1|0|0|A

Data Header:			0.254_solid_dimension_typei_090_r0			Time:	20.0176	s	4/15/2019 2:26:46 PM
Data Acquisition:	Timed
Station Name:	ft40.cfg
Test File Name:	monotonic_0.2540_typei_solid_090_dimension.tst
Displacement	Force	Running Time
mm	N	s
9.97195	-164.062	0.0224609
9.973547	-158.4306	0.0908203
9.9789	-155.858	0.15918
9.98322	-150.317	0.227539
9.98914	-140.2	0.295898
9.9951	-133.537	0.364258
10.0012	-128.767	0.432617
10.0065	-123.555	0.500977
10.0123	-121.094	0.569336
10.0179	-124.013	0.637695
10.0243	-123.5	0.706055
10.0292	-116.608	0.774414
10.03502	-115.066	0.842773
10.0401	-113.129	0.911133
10.0466	-101.739	0.979492
10.0535	-94.93573	1.04785
10.0575	-86.0385	1.11621
10.0635	-81.0828	1.18457
10.0697	-77.377	1.25293
10.07528	-81.0238	1.32129
10.0801	-80.5285	1.38965
10.08623	-75.1889	1.45801
10.0922	-75.5515	1.52637
10.09846	-71.8623	1.59473
10.1033	-64.38858	1.66309
10.1087	-57.8548	1.73145
10.1141	-48.2518	1.7998
10.1201	-40.7083	1.86816
10.126	-37.1064	1.93652
10.13168	-35.9912	2.00488
10.13751	-34.5742	2.07324
10.14338	-31.7193	2.1416
10.1486	-31.5262	2.20996
10.155	-27.9732	2.27832
10.1603	-27.0281	2.34668
10.1655	-17.5581	2.41504
10.1717	-8.64156	2.4834
10.1773	-1.91282	2.55176
10.1823	3.11352	2.62012
10.1892	7.09971	2.68848
10.1945	11.83647	2.75684
10.2004	11.7806	2.8252
10.2045	11.0967	2.89355
10.2113	14.8224	2.96191
10.2168	16.6555	3.03027
10.22278	21.3337	3.09863
10.2286	31.3775	3.16699
10.2345	38.5612	3.23535
10.2405	42.5924	3.30371
10.246	50.4854	3.37207
10.2516	55.9765	3.44043
10.2571	57.6475	3.50879
10.2627	55.4254	3.57715
10.2683	57.3303	3.64551
10.2749	57.939	3.71387
10.2804	62.4128	3.78223
10.2859	70.3591	3.85059
10.2918	80.5251	3.91895
10.2957	82.9806	3.9873
10.30333	89.6937	4.05566
10.308	99.5448	4.12402
10.3138	97.9592	4.19238
10.3209	99.714	4.26074
10.326	102.534	4.3291
10.3309	101.113	4.39746
10.3371	104.412	4.46582
10.3432	111.7006	4.53418
10.3478	117.989	4.60254
10.3529	120.729	4.6709
10.359	132.5285	4.73926
10.36564	141.214	4.80762
10.3716	141.8759	4.87598
10.3761	145.294	4.94434
10.3821	147.536	5.0127
10.38723	145.776	5.08105
10.394	147.198	5.14941
10.3989	152.466	5.21777
10.4051	157.048	5.28613
10.4109	161.672	5.35449
10.4156	169.621	5.42285
10.4221	181.4274	5.49121
10.4275	185.124	5.55957
10.4339	188.901	5.62793
10.4398	190.268	5.69629
10.4444	190.247	5.76465
10.4514	190.1515	5.83301
10.4558	194.233	5.90137
10.4622	196.427	5.96973
10.4669	200.664	6.03809
10.4738	210.232	6.10645
10.4789	221.293	6.1748
10.4848	225.778	6.24316
10.49071	229.059	6.31152
10.4965	235.863	6.37988
10.5025	235.508	6.44824
10.5085	235.8017	6.5166
10.5133	236.201	6.58496
10.5196	235.843	6.65332
10.5245	241.895	6.72168
10.5303	248.538	6.79004
10.5364	258.691	6.8584
10.5425	265.396	6.92676
10.54626	272.44	6.99512
10.5539	275.0386	7.06348
10.55872	278.8743	7.13184
10.5644	280.045	7.2002
10.5704	279.35	7.26855
10.5767	279.416	7.33691
10.581	282.365	7.40527
10.58737	289.998	7.47363
10.5934	296.237	7.54199
10.5993	305.155	7.61035
10.6055	312.314	7.67871
10.6101	316.603	7.74707
10.6162	322.908	7.81543
10.6211	324.217	7.88379
10.62676	322.451	7.95215
10.632	320.938	8.02051
10.639	324.467	8.08887
10.6445	329.053	8.15723
10.6505	331.396	8.22559
10.6562	340.759	8.29395
10.6608	350.028	8.3623
10.6675	355.931	8.43066
10.67215	363.285	8.49902
10.6788	368.724	8.56738
10.6846	366.254	8.63574
10.68844	362.969	8.7041
10.6954	365.6481	8.77246
10.7009	367.317	8.84082
10.707	368.558	8.90918
10.7123	378.158	8.97754
10.7189	388.118	9.0459
10.724	394.205	9.11426
10.7305	403.125	9.18262
10.73686	410.581	9.25098
10.7407	409.307	9.31934
10.7474	406.357	9.3877
10.7524	409.641	9.45605
10.7573	410.269	9.52441
10.7637	409.129	9.59277
10.7702	415.406	9.66113
10.7748	424.389	9.72949
10.7809	430.45	9.79785
10.7869	441.881	9.86621
10.7931	451.199	9.93457
10.7989	452.578	10.00293
10.8046	451.007	10.0713
10.8108	454.882	10.1396
10.8159	453.3259	10.208
10.8216	451.423	10.2764
10.8271	455.653	10.3447
10.83391	462.467	10.4131
10.8385	470.191	10.4814
10.8449	479.081	10.5498
10.8506	488.0448	10.6182
10.8544	493.115	10.6865
10.8619	491.282	10.7549
10.8663	497.036	10.8232
10.8729	495.474	10.8916
10.8776	492.24	10.96
10.8845	494.421	11.02832
10.8902	497.111	11.09668
10.8958	507.869	11.165
10.9002	515.714	11.2334
10.9068	523.167	11.3018
10.91225	527.976	11.3701
10.918	532.936	11.4385
10.9242	537.727	11.5068
10.93074	538.062	11.5752
10.9357	535.175	11.6436
10.9406	533.522	11.7119
10.9476	535.474	11.7803
10.9527	542.892	11.8486
10.9578	551.314	11.917
10.9633	557.954	11.9854
10.969	565.127	12.0537
10.97508	574.13	12.12207
10.9795	578.157	12.19043
10.9863	577.762	12.2588
10.99264	577.544	12.3271
10.999	575.68	12.3955
11.0042	574.978	12.4639
11.0094	579.443	12.5322
11.0148	585.944	12.6006
11.021	591.172	12.6689
11.0267	600.33	12.7373
11.0327	610.734	12.8057
11.0384	614.956	12.874
11.0437	616.194	12.9424
11.0492	619.441	13.0107
11.0551	616.034	13.0791
11.0612	613.852	13.1475
11.0659	617.259	13.21582
11.0723	623.022	13.28418
11.0784	623.256	13.3525
11.0843	632.355	13.4209
11.0895	647.116	13.4893
11.0947	651.179	13.5576
11.1008	654.106	13.626
11.10548	659.912	13.6943
11.1115	658.379	13.7627
11.1172	654.764	13.8311
11.1231	655.667	13.8994
11.1284	658.18	13.9678
11.1336	658.982	14.0361
11.1405	666.574	14.1045
11.1456	680.427	14.1729
11.1518	684.816	14.2412
11.1579	691.045	14.30957
11.1626	697.365	14.37793
11.1684	695.968	14.4463
11.1749	694.098	14.5146
11.1806	695.395	14.583
11.1863	695.94	14.6514
11.1927	695.084	14.7197
11.1977	700.201	14.7881
11.2031	711.23	14.8564
11.2075	719.416	14.9248
11.2142	726.134	14.9932
11.2207	732.331	15.0615
11.2255	735.487	15.1299
11.2313	734.406	15.1982
11.2363	734.028	15.2666
11.24269	732.711	15.335
11.249	730.114	15.40332
11.2544	734.917	15.47168
11.2588	742.116	15.54
11.2657	750.732	15.6084
11.271	757.718	15.6768
11.2778	766.559	15.7451
11.2835	769.213	15.8135
11.2886	773.399	15.8818
11.2943	771.354	15.9502
11.2995	768.676	16.0186
11.3057	766.97	16.0869
11.3114	769.476	16.1553
11.3174	776.196	16.2236
11.3229	781.762	16.292
11.3276	790.968	16.3604
11.3342	798.2821	16.4287
11.3407	805.092	16.49707
11.3457	808.883	16.56543
11.35104	808.22	16.6338
11.3571	803.192	16.7021
11.3616	804.094	16.7705
11.3696	806.516	16.8389
11.37401	806.699	16.9072
11.38	812.1759	16.9756
11.3856	820.378	17.0439
11.3917	828.0224	17.1123
11.397	834.856	17.1807
11.4023	841.593	17.249
11.4085	842.687	17.3174
11.41404	837.966	17.3857
11.4189	839.058	17.4541
11.4256	839.148	17.5225
11.4302	838.713	17.59082
11.43725	842.964	17.65918
11.44101	850.487	17.7275
11.44759	855.546	17.7959
11.4537	864.523	17.8643
11.4594	873.989	17.9326
11.465	873.357	18.001
11.4711	873.317	18.0693
11.4762	874.097	18.1377
11.4817	873.565	18.2061
11.4876	870.042	18.2744
11.4933	873.846	18.3428
11.4989	877.911	18.4111
11.5048	883.304	18.4795
11.5107	891.964	18.5479
11.5162	900.935	18.6162
11.5218	903.22	18.68457
11.5283	902.372	18.75293
11.5338	907.327	18.8213
11.5396	905.9549	18.8896
11.5456	900.118	18.958
11.55083	902.786	19.0264
11.556	905.46	19.0947
11.56167	911.143	19.1631
11.5676	916.7334	19.2314
11.5732	924.224	19.2998
11.579	927.498	19.3682
11.5848	930.351	19.4365
11.59044	935.514	19.5049
11.5954	933.3559	19.5732
11.6019	928.897	19.6416
11.6085	929.311	19.71
11.6132	931.147	19.77832
11.6191	934.8949	19.84668
11.6247	939.762	19.915
[...]
13.4019	-38.4361	41.2432
13.40309	-35.6929	41.25293
13.4037	-40.5692	41.2627
13.4043	-49.9619	41.2725
13.4054	-50.6559	41.2822
13.4063	-45.8727	41.292
13.4063	-36.6586	41.3018
13.40761	-36.2223	41.3115
13.4081	-42.3154	41.3213
13.4101	-43.6408	41.3311
13.4097	-49.1762	41.34082
13.4101	-48.8735	41.3506
13.4119	-41.2873	41.3604
13.4137	-37.6848	41.3701
13.41398	-35.7052	41.3799
13.4147	-44.2119	41.3896
13.4152	-51.459	41.3994
13.4159	-49.2299	41.40918
13.4176	-42.7217	41.4189
13.4173	-37.41732	41.4287
13.4176	-38.4221	41.4385
13.4194	-42.0377	41.4482
13.4195	-48.047	41.458
13.4206	-51.6514	41.4678
13.4215	-45.757	41.4775
13.4227	-40.6658	41.4873
13.4227	-36.1232	41.49707
13.4242	-36.84993	41.5068
13.4246	-48.8989	41.5166
13.4249	-50.1071	41.5264
13.426	-46.5689	41.5361
13.4262	-42.2589	41.5459
13.4282	-39.012	41.5557
13.4279	-39.81216	41.56543
13.4295	-43.5144	41.5752
13.4294	-45.9229	41.585
13.43037	-49.4256	41.5947
13.4321	-45.1353	41.6045
13.4329	-39.4844	41.6143
13.4341	-38.113	41.624
13.4339	-40.7308	41.6338
13.4342	-46.4892	41.6436
13.4365	-49.6337	41.65332
13.436	-45.6472	41.6631
13.4378	-42.998	41.6729
13.438	-37.06842	41.6826
13.4391	-39.9767	41.6924
13.441	-42.2918	41.7021
13.4413	-45.9903	41.7119
13.4425	-50.8805	41.72168
13.4424	-43.336	41.7314
13.4435	-38.4239	41.7412
13.4453	-38.26231	41.751
13.445	-40.1606	41.7607
13.4453	-49.505	41.7705
13.4468	-48.6369	41.7803
13.4473	-46.8109	41.79
13.4474	-43.0857	41.7998
13.4484	-36.3502	41.80957
13.4498	-37.0921	41.8193
13.4505	-41.6576	41.8291
13.4516	-50.266	41.8389
13.4513	-50.4853	41.8486
13.4538	-43.348	41.8584
13.4543	-36.3209	41.8682
13.4541	-37.4986	41.87793
13.4549	-43.0131	41.8877
13.4561	-48.6908	41.8975
13.456	-49.184	41.9072
13.4595	-48.187	41.917
13.4583	-40.3295	41.9268
13.4591	-36.2539	41.9365
13.4611	-38.5346	41.9463
13.461	-46.1587	41.9561
13.4627	-51.7538	41.96582
13.4634	-48.448	41.9756
13.4641	-40.10741	41.9854
13.465	-36.4768	41.9951
13.4657	-40.115	42.0049
13.4653	-43.9222	42.0146
13.4668	-49.4696	42.0244
13.4674	-49.6399	42.03418
13.4679	-43.8412	42.0439
13.469	-39.6829	42.0537
13.47	-34.0554	42.0635
13.4719	-40.2391	42.0732
13.4719	-49.7422	42.083
13.4719	-49.3677	42.0928
13.4721	-45.3752	42.1025
13.4743	-36.93232	42.1123
13.4747	-37.7586	42.12207
13.4761	-39.5265	42.1318
13.4765	-45.2546	42.1416
13.4772	-50.57822	42.1514
13.4779	-46.2948	42.1611
13.4786	-44.6866	42.1709
13.4793	-38.5739	42.1807
13.4811	-36.91869	42.19043
13.4811	-47.007	42.2002
13.4828	-48.1374	42.21
13.4836	-48.78706	42.2197
13.4833	-43.5716	42.2295
13.485	-39.09465	42.2393
13.4857	-40.2251	42.249
13.4861	-39.87318	42.2588
13.4875	-44.6005	42.2686
13.4881	-49.201	42.27832
13.489	-47.3614	42.2881
13.4891	-43.4614	42.2979
13.4904	-37.48064	42.3076
13.4914	-39.0139	42.3174
13.4918	-43.73177	42.3271
13.492	-48.198	42.3369
13.49437	-46.4978	42.34668
13.4934	-45.2124	42.3564
13.4952	-41.0736	42.3662
13.4957	-38.7802	42.376
13.4954	-39.2941	42.3857
13.4985	-45.3707	42.3955
13.4987	-51.36945	42.4053
13.4995	-47.2179	42.415
13.4991	-41.081	42.4248
13.5005	-35.5674	42.43457
13.5014	-37.2495	42.4443
13.5024	-47.6969	42.4541
13.5025	-48.0461	42.4639
13.5042	-48.1527	42.4736
13.5056	-45.2289	42.4834
13.5051	-36.7072	42.4932
13.5078	-37.5625	42.50293
13.5073	-41.2154	42.5127
13.5084	-48.8001	42.5225
13.5095	-51.91605	42.5322
13.50995	-44.6099	42.542
13.5106	-39.072	42.5518
13.512	-35.6686	42.5615
13.51316	-41.3331	42.5713
13.51273	-47.5779	42.5811
13.5137	-47.6726	42.59082
13.5153	-48.46521	42.6006
13.5153	-41.8228	42.6104
13.517	-36.1246	42.6201
13.5171	-38.7036	42.6299
13.518	-43.4719	42.6396
13.5191	-51.9564	42.6494
13.5191	-50.4814	42.65918