Folder: Stress_Strain_Analysis_Tools/data/processed_data_files/tensile (part 34)

File: 0.254_solid_dimension_typei_4545_r(4).dat
MTS793|BTW|ENU|1|2|.|/|:|1|0|0|A

Data Header:			0.254_solid_dimension_typei_4545_r0			Time:	20.0181	s	4/14/2019 4:52:19 AM
Data Acquisition:	Timed
Station Name:	ft40.cfg
Test File Name:	monotonic_0.2540_typei_solid_4545_dimension.tst
Displacement	Force	Running Time
mm	N	s
9.95819	-139.38	0.0227051
9.96004	-139.097	0.0910645
9.96588	-136.3	0.159424
9.97157	-129.203	0.2277832
9.97694	-122.459	0.296143
9.98177	-115.807	0.364502
9.98786	-107.7032	0.432861
9.99423	-105.702	0.5012207
9.99974	-100.169	0.56958
10.0053	-99.8208	0.637939
10.0112	-102.25	0.706299
10.0154	-104.423	0.7746582
10.0218	-103.21	0.843018
10.0279	-95.9694	0.911377
10.03273	-91.7524	0.979736
10.039	-82.0613	1.0481
10.0452	-74.4744	1.11646
10.0509	-70.2852	1.18481
10.0557	-63.9049	1.25317
10.0623	-59.8899	1.32153
10.0677	-64.50618	1.38989
10.0741	-66.3585	1.458252
10.0801	-64.9233	1.52661
10.0849	-60.162	1.59497
10.09047	-56.6262	1.66333
10.0968	-48.0794	1.73169
10.1013	-40.2859	1.80005
10.1071	-35.1113	1.86841
10.1127	-25.9651	1.93677
10.12	-22.9056	2.005127
10.1235	-24.9697	2.07349
10.13047	-26.6376	2.14185
10.1356	-23.1319	2.21021
10.142	-21.1279	2.27856
10.1479	-20.7439	2.34692
10.1536	-11.7089	2.41528
10.1583	-3.27048	2.48364
10.1636	2.37942	2.552002
10.1705	11.6006	2.62036
10.1762	17.1326	2.68872
10.18193	14.7427	2.75708
10.1882	16.1924	2.82544
10.1933	20.5298	2.8938
10.19838	16.8401	2.96216
10.2044	17.75642	3.03052
10.2104	25.176	3.098877
10.2171	31.2237	3.16724
10.2217	39.0495	3.2356
10.2277	48.0116	3.30396
10.2325	56.08503	3.37231
10.2392	53.1423	3.44067
10.2447	57.2136	3.50903
10.2506	64.2272	3.57739
10.25586	59.5488	3.645752
10.26128	61.0403	3.71411
10.2676	64.8577	3.78247
10.2717	68.588	3.85083
10.2783	75.636	3.91919
10.2843	86.9245	3.98755
10.2898	91.3324	4.05591
10.2964	94.9436	4.12427
10.3019	101.951	4.192627
10.3075	106.728	4.26099
10.3127	102.668	4.32935
10.3187	104.024	4.39771
10.3238	105.889	4.46606
10.3298	107.0192	4.53442
10.3361	116.286	4.60278
10.34013	122.835	4.67114
10.3477	127.463	4.739502
10.3521	132.218	4.80786
10.3582	142.656	4.87622
10.3646	147.847	4.94458
10.3697	144.859	5.01294
10.3749	146.37	5.0813
10.381	146.097	5.14966
10.3865	148.788	5.21802
10.3926	152.556	5.286377
10.3979	161.774	5.35474
10.4042	164.97	5.4231
10.4103	170.901	5.49146
10.4153	181.693	5.55981
10.421	186.981	5.62817
10.4271	186.581	5.69653
10.4324	188.496	5.76489
10.4379	187.453	5.833252
10.4438	189.751	5.90161
10.44921	191.377	5.96997
10.4558	194.781	6.03833
10.45984	201.077	6.10669
10.4664	209.088	6.17505
10.4727	220.438	6.24341
10.47787	226.776	6.31177
10.4839	229.378	6.380127
10.4887	232.09	6.44849
10.49472	231.0016	6.51685
10.5013	233.692	6.58521
10.5066	231.729	6.65356
10.5135	233.26	6.72192
10.5181	237.556	6.79028
10.5236	247.493	6.85864
10.5298	256.545	6.927002
10.5349	264.216	6.99536
10.5408	269.121	7.06372
10.547	272.233	7.13208
10.5516	274.127	7.20044
10.5579	274.577	7.2688
10.5636	273.71	7.33716
10.5689	271.9252	7.40552
10.5744	276.333	7.473877
10.5804	285.218	7.54224
10.5862	293.6933	7.6106
10.5916	302.707	7.67896
10.5978	309.287	7.74731
10.6023	313.341	7.81567
10.6091	314.624	7.88403
10.6151	317.928	7.95239
10.6201	315.788	8.020752
10.626	313.637	8.08911
10.6323	316.6329	8.15747
10.6374	322.682	8.22583
10.6432	327.316	8.29419
10.6496	336.743	8.36255
10.6541	345.663	8.43091
10.6598	352.259	8.49927
10.6655	358.323	8.567627
10.6713	362.173	8.63599
10.6768	358.524	8.70435
10.6825	354.155	8.77271
10.6894	355.328	8.84106
10.6939	359.016	8.90942
10.701	363.164	8.97778
10.7053	371.295	9.04614
10.71242	382.272	9.114502
10.7168	388.689	9.18286
10.7219	398.138	9.25122
10.729	404.34	9.31958
10.735	399.669	9.38794
10.7401	396.621	9.4563
10.7454	399.085	9.52466
10.7517	398.765	9.59302
10.7573	400.71	9.661377
10.7617	408.206	9.72974
10.7686	417.352	9.7981
10.7739	423.824	9.86646
10.7803	434.7384	9.93481
10.7861	443.251	10.0032
10.7912	440.85	10.0715
10.798	441.318	10.1399
10.8032	444.189	10.2083
10.8089	439.89	10.2766
10.8143	438.475	10.345
10.8199	443.775	10.41333
10.8258	449.936	10.4817
10.8314	460.367	10.55
10.8373	471.873	10.6184
10.842	478.271	10.6868
10.8478	480.581	10.7551
10.8549	481.751	10.8235
10.8605	486.292	10.8918
10.8651	480.013	10.9602
10.8716	478.1604	11.0286
10.8763	482.635	11.0969
10.8831	486.1	11.1653
10.8882	492.8	11.2336
10.8948	504.466	11.302
10.8989	514.126	11.3704
10.9043	515.479	11.4387
10.9115	521.559	11.50708
10.916	526.881	11.5754
10.9224	523.256	11.6438
10.9285	520.155	11.7122
10.9342	520.896	11.7805
10.9398	520.438	11.8489
10.945	527.4353	11.9172
10.9508	537.019	11.9856
10.9561	545.078	12.054
10.9617	551.008	12.1223
10.9683	559.853	12.1907
10.9737	564.905	12.259
10.9783	561.84	12.3274
10.9846	560.251	12.3958
10.991	559.947	12.4641
10.9965	559.2312	12.5325
11.0022	562.711	12.60083
11.0079	569.109	12.6692
11.0141	576.144	12.7375
11.0185	584.095	12.8059
11.0253	594.539	12.8743
11.0303	599.352	12.9426
11.0365	601.092	13.011
11.042	600.72	13.0793
11.04851	597.457	13.1477
11.0534	598.07	13.2161
11.05914	597.496	13.2844
11.0647	601.0896	13.3528
11.071	606.701	13.4211
11.076	615.432	13.4895
11.0815	627.898	13.5579
11.0878	634.722	13.6262
11.093	638.306	13.69458
11.0994	639.875	13.7629
11.1048	637.0141	13.8313
11.1101	637.072	13.8997
11.1154	635.218	13.968
11.1215	636.5108	14.0364
11.1273	638.686	14.1047
11.1332	649.105	14.1731
11.13861	658.892	14.2415
11.1441	666.777	14.3098
11.15037	673.857	14.3782
11.1563	676.636	14.4465
11.1603	676.235	14.5149
11.168	677.081	14.5833
11.17216	672.934	14.6516
11.1798	670.313	14.72
11.1848	673.49	14.78833
11.1897	681.89	14.8567
11.1958	690.626	14.925
11.2009	699.551	14.9934
11.20707	707.461	15.0618
11.2124	712.99	15.1301
11.2183	715.2135	15.1985
11.2242	714.141	15.2668
11.2301	710.112	15.3352
11.2351	706.954	15.4036
11.2408	706.795	15.4719
11.2473	713.561	15.5403
11.2523	718.398	15.6086
11.2584	728.616	15.677
11.2641	739.379	15.7454
11.2701	743.96	15.8137
11.2759	749.3092	15.88208
11.2805	750.927	15.9504
11.2859	748.5274	16.0188
11.2929	741.846	16.0872
11.2985	742.004	16.1555
11.305	746.362	16.2239
11.31	748.186	16.2922
11.3145	758.71	16.3606
11.3209	769.125	16.429
11.327	775.697	16.4973
11.3323	781.368	16.5657
11.3384	787.102	16.634
11.34438	783.99	16.7024
11.3485	779.231	16.7708
11.3553	777.604	16.8391
11.3613	781.094	16.9075
11.366	779.21	16.97583
11.3724	786.61	17.0442
11.3776	798.059	17.1125
11.3844	805.268	17.1809
11.38883	813.822	17.2493
11.39536	818.882	17.3176
11.4007	816.352	17.386
11.4058	812.702	17.4543
11.41221	815.413	17.5227
11.4181	812.698	17.5911
11.4237	810.172	17.6594
11.429	817.446	17.7278
11.4353	824.477	17.7961
11.4399	831.57	17.8645
11.4458	840.032	17.9329
11.4519	849.066	18.0012
11.458	847.969	18.06958
11.4633	847.808	18.1379
11.4694	850.198	18.2063
11.4746	847.564	18.2747
11.48	843.3222	18.343
11.4871	845.034	18.4114
11.4926	851.05	18.4797
11.4974	858.691	18.5481
11.5035	868.425	18.6165
11.5084	875.119	18.6848
11.5154	877.791	18.7532
11.5204	879.305	18.8215
11.5253	883.975	18.8899
11.5314	878.1	18.9583
11.5384	875.046	19.0266
11.5445	875.608	19.095
11.5498	878.3938	19.16333
11.5549	883.182	19.2317
11.5607	892.862	19.3
11.5655	899.012	19.3684
11.571	904.375	19.4368
11.578	909.152	19.5051
11.5833	914.116	19.5735
11.589	910.9588	19.6418
11.5941	907.1189	19.7102
11.60055	905.852	19.7786
11.6056	906.548	19.8469
11.6116	909.457	19.9153
[...]
15.3862	1094.26	65.1985
15.3896	1094.43	65.2473
15.3937	1076.77	65.2961
15.3982	1071.556	65.345
15.403	1084.87	65.3938
15.4063	1095.35	65.4426
15.41094	1086.21	65.4915
15.4144	1076	65.5403
15.4188	1081.33	65.5891
15.4223	1094.76	65.6379
15.42631	1093.7	65.6868
15.4305	1080.65	65.7356
15.4343	1073.69	65.7844
15.4384	1085.79	65.8333
15.4422	1097.23	65.88208
15.4472	1089.308	65.9309
15.4507	1075.81	65.9797
15.4548	1075.6	66.0286
15.4593	1087.53	66.0774
15.463	1093	66.1262
15.46734	1082.46	66.175
15.4727	1072.78	66.2239
15.4749	1082.593	66.2727
15.4796	1094.8	66.3215
15.4831	1089.47	66.3704
15.4887	1077.77	66.4192
15.4919	1073.65	66.468
15.4958	1088.78	66.5168
15.5004	1095.24	66.5657
15.5043	1082.41	66.6145
15.5086	1073.7	66.66333
15.5125	1078.99	66.7122
15.5159	1090.04	66.761
15.5202	1088.906	66.8098
15.5238	1076.48	66.8586
15.52836	1074.267	66.9075
15.5333	1088.06	66.9563
15.5374	1095.67	67.0051
15.5413	1084.29	67.054
15.5442	1073.04	67.1028
15.5483	1078.11	67.1516
15.5529	1093.166	67.2004
15.5561	1090.5	67.2493
15.5601	1079.04	67.2981
15.5661	1073.23	67.3469
15.5692	1085.91	67.3958
15.5734	1091.38	67.44458
15.5777	1084.77	67.4934
15.5813	1071.47	67.5422
15.5857	1077.84	67.5911
15.5899	1092.481	67.6399
15.5933	1095.39	67.6887
15.5972	1080.36	67.7375
15.6022	1071.68	67.7864
15.60603	1081.65	67.8352
15.6099	1096.04	67.884
15.6146	1089.52	67.9329
15.6174	1073.57	67.9817
15.6224	1074.36	68.0305
15.6259	1089.63	68.0793
15.6303	1092.16	68.1282
15.6339	1079.11	68.177
15.6395	1068.51	68.22583
15.6433	1079.486	68.2747
15.64632	1094.45	68.3235
15.65071	1091.54	68.3723
15.6545	1076.58	68.4211
15.6581	1071.93	68.47
15.6621	1086.34	68.5188
15.66751	1095.29	68.5676
15.6703	1085.32	68.6165
15.6746	1071.65	68.6653
15.6789	1078.39	68.7141
15.6834	1093.213	68.7629
15.6876	1091.4	68.8118
15.6903	1073.3	68.8606
15.6962	1068.44	68.9094
15.6998	1081.48	68.9583
15.7034	1095.55	69.00708
15.7071	1087.45	69.0559
15.7114	1072.68	69.1047
15.71586	1074.87	69.1536
15.7198	1090.63	69.2024
15.7246	1092.96	69.2512
15.7281	1080.46	69.3
15.7327	1069.51	69.3489
15.7354	1079.64	69.3977
15.74	1094.36	69.4465
15.7443	1089.65	69.4954
15.7476	1070.48	69.5442
15.7534	1069.06	69.593
15.7559	1086.93	69.6418
15.76027	1093.89	69.6907
15.7639	1082.43	69.7395
15.7685	1070.57	69.78833
15.7726	1077.62	69.8372
15.7773	1092.01	69.886
15.7802	1091.01	69.9348
15.7847	1074.99	69.9836
15.789	1070.7	70.0325
15.7926	1081.9	70.0813
15.797	1093.37	70.1301
15.8006	1084.54	70.179
15.8044	1067.14	70.2278
15.8096	1071.46	70.2766
15.8131	1086.86	70.3254
15.81684	1089.86	70.3743
15.8214	1076.79	70.4231
15.8257	1070.21	70.4719
15.8302	1082.78	70.5208
15.8337	1091.34	70.56958
15.8382	1085.037	70.6184
15.8423	1071.41	70.6672
15.8458	1071.82	70.7161
15.8495	1087.02	70.7649
15.8549	1091.3	70.8137
15.8591	1078.17	70.8625
15.8626	1067.73	70.9114
15.8663	1075.44	70.9602
15.8711	1088.06	71.009
15.8741	1082.479	71.0579
15.8784	1070.901	71.1067
15.8828	1071.94	71.1555
15.8864	1085.74	71.2043
15.891	1088.64	71.2532
15.8943	1077	71.302
15.89748	1065.92	71.35083
15.9035	1072.744	71.3997
15.9067	1088.07	71.4485
15.9116	1083.77	71.4973
15.9151	1068.32	71.5461
15.9198	1062.84	71.595
15.9231	1072.16	71.6438
15.9278	1073.72	71.6926
15.9358	-39.3096	71.7415
15.93797	-50.9544	71.7903
15.9411	-40.5915	71.8391
15.94524	-23.7345	71.8879
15.9485	-32.2736	71.9368
15.9524	-50.4899	71.9856
15.957	-49.986	72.0344
15.96047	-31.9524	72.0833
15.9637	-25.4391	72.13208
15.9684	-41.0515	72.1809
15.973	-51.1981	72.2297
15.977	-42.3722	72.2786
15.98095	-31.2415	72.3274
15.9841	-34.0942	72.3762
15.988	-47.6375	72.425
15.9926	-51.088	72.4739
15.9966	-36.6091	72.5227
16.0003	-31.1148	72.5618

File: 0.254_solid_dimension_typei_4545_r(5).dat
MTS793|BTW|ENU|1|2|.|/|:|1|0|0|A

Data Header:			0.254_solid_dimension_typei_4545_r0			Time:	20.0168	s	4/14/2019 4:55:12 AM
Data Acquisition:	Timed
Station Name:	ft40.cfg
Test File Name:	monotonic_0.2540_typei_solid_4545_dimension.tst
Displacement	Force	Running Time
mm	N	s
9.95812	-112.25	0.0222168
9.9613	-113.373	0.0905762
9.96541	-113.509	0.158936
9.97122	-112.283	0.227295
9.97699	-115.676	0.2956543
9.98247	-115.481	0.364014
9.98852	-113.048	0.432373
9.99424	-110.893	0.500732
9.99938	-106.395	0.5690918
10.0063	-97.9833	0.637451
10.0112	-87.6094	0.705811
10.01663	-81.1845	0.77417
10.0226	-78.7382	0.8425293
10.029	-77.3404	0.910889
10.0352	-78.0315	0.979248
10.04061	-77.9203	1.04761
10.046	-78.42	1.11597
10.0513	-78.0829	1.18433
10.0568	-75.2318	1.25269
10.0613	-65.969	1.32104
10.0683	-55.6165	1.3894
10.0737	-49.0164	1.45776
10.0791	-41.0497	1.526123
10.0844	-39.56963	1.59448
10.0913	-39.3251	1.66284
10.0967	-38.5477	1.7312
10.1026	-40.0332	1.79956
10.1081	-40.7238	1.86792
10.11355	-38.56031	1.93628
10.1187	-30.0701	2.00464
10.1244	-22.7196	2.072998
10.131	-14.1083	2.14136
10.1374	-7.03329	2.20972
10.14193	-1.92425	2.27808
10.1473	0.637895	2.34644
10.1546	3.4188	2.41479
10.16	1.62375	2.48315
10.1652	-2.345284	2.55151
10.1704	-2.11272	2.619873
10.1767	7.51499	2.68823
10.18225	11.34	2.75659
10.1875	18.0563	2.82495
10.1934	30.8408	2.89331
10.1996	34.8629	2.96167
10.2049	40.8394	3.03003
10.211	44.2267	3.09839
10.2167	43.1943	3.166748
10.22214	38.456	3.23511
10.22678	37.5289	3.30347
10.233	44.2601	3.37183
10.2394	46.3179	3.44019
10.24432	54.6015	3.50854
10.2502	64.3063	3.5769
10.25615	71.6044	3.64526
10.2612	79.2799	3.713623
10.2675	85.1818	3.78198
10.2723	85.9355	3.85034
10.278	80.7131	3.9187
10.2854	80.1027	3.98706
10.291	83.3685	4.05542
10.2963	83.9848	4.12378
10.3014	90.0114	4.19214
10.3078	99.471	4.260498
10.31317	109.045	4.32886
10.3189	117.642	4.39722
10.3243	124.915	4.46558
10.3293	126.218	4.53394
10.3351	121.966	4.60229
10.3415	123.579	4.67065
10.3468	125.95	4.73901
10.35289	123.616	4.807373
10.3579	127.623	4.87573
10.3644	134.566	4.94409
10.3697	144.517	5.01245
10.375	151.844	5.08081
10.3812	162.61	5.14917
10.3874	166.027	5.21753
10.3918	164.839	5.28589
10.3989	168.423	5.354248
10.4034	167.433	5.42261
10.4094	163.614	5.49097
10.4143	164.5748	5.55933
10.4206	172.069	5.62769
10.4281	180.646	5.69604
10.4319	188.896	5.7644
10.4382	198.885	5.83276
10.4436	203.741	5.901123
10.4492	205.6918	5.96948
10.4556	209.526	6.03784
10.4619	209.017	6.1062
10.467	205.064	6.17456
10.4727	205.639	6.24292
10.4782	207.978	6.31128
10.4836	215.995	6.37964
10.4899	225.216	6.447998
10.4948	235.294	6.51636
10.4998	241.314	6.58472
10.5061	246.801	6.65308
10.5118	251.628	6.72144
10.518	251.992	6.78979
10.52381	250.152	6.85815
10.5292	246.723	6.92651
10.5355	247.32	6.994873
10.541	254.362	7.06323
10.5461	260.836	7.13159
10.5531	268.202	7.19995
10.5582	275.582	7.26831
10.5631	284.045	7.33667
10.5691	290.525	7.40503
10.5749	291.702	7.47339
10.5806	292.83	7.541748
10.5872	291.047	7.61011
10.5921	288.018	7.67847
10.5978	290.951	7.74683
10.6032	297.487	7.81519
10.6087	299.185	7.88354
10.61407	307.381	7.9519
10.62016	317.482	8.02026
10.62539	327.361	8.088623
10.6318	330.049	8.15698
10.6366	334.463	8.22534
10.643	334.115	8.2937
10.6483	329.416	8.36206
10.6545	331.43	8.43042
10.6599	333.253	8.49878
10.6661	335.5426	8.56714
10.6719	340.277	8.635498
10.67663	352.259	8.70386
10.68311	363.648	8.77222
10.6888	367.836	8.84058
10.6943	374.367	8.90894
10.7	377.136	8.97729
10.7052	372.116	9.04565
10.712	372.497	9.11401
10.7178	372.411	9.182373
10.7226	372.008	9.25073
10.72942	375.795	9.31909
10.7345	385.7171	9.38745
10.7392	396.67	9.45581
10.7448	403.956	9.52417
10.7513	412.319	9.59253
10.7569	417.393	9.66089
10.7633	414.945	9.729248
10.7681	415.57	9.79761
10.77312	413.154	9.86597
10.7795	410.679	9.93433
10.7844	411.517	10.0027
10.791	420.828	10.071
10.7969	430.349	10.1394
10.8023	437.18	10.2078
10.80746	447.867	10.2761
10.8129	455.0434	10.3445
10.8196	456.575	10.4128
10.8263	455.598	10.4812
10.8313	454.716	10.5496
10.8366	450.514	10.61792
10.8418	447.746	10.6863
10.8471	454.391	10.7546
10.8543	461.652	10.823
10.8597	470.242	10.8914
10.8661	480.01	10.9597
10.8706	489.214	11.0281
10.8759	495.784	11.0964
10.8824	495.755	11.1648
10.88778	496.689	11.2332
10.8931	490.2674	11.3015
10.89872	487.691	11.3699
10.9051	491.308	11.4382
10.9115	494.931	11.5066
10.9164	501.522	11.575
10.9222	512.64	11.6433
10.9275	522.158	11.71167
10.93311	531.987	11.78
10.9392	534.091	11.8484
10.945	534.955	11.9167
10.9516	529.967	11.9851
10.956	528.281	12.0535
10.9614	526.839	12.1218
10.9675	529.04	12.1902
10.973	535.557	12.2585
10.9791	543.918	12.3269
10.9835	552.176	12.3953
10.9907	564.609	12.4636
10.9966	571.951	12.532
11.0028	571.8927	12.6003
11.0076	570.33	12.6687
11.0134	567.112	12.7371
11.0189	564.99	12.80542
11.0244	565.133	12.8738
11.0306	567.755	12.9421
11.0364	575.092	13.0105
11.0412	583.416	13.0789
11.0469	596.796	13.1472
11.0527	605.26	13.2156
11.0583	608.6687	13.2839
11.0647	606.823	13.3523
11.0706	605.0733	13.4207
11.07562	603.609	13.489
11.0813	598.576	13.5574
11.0867	601.997	13.6257
11.0916	606.714	13.6941
11.0989	612.1673	13.7625
11.1042	625.804	13.8308
11.1098	636.476	13.89917
11.1163	641.352	13.9675
11.121	643.3913	14.0359
11.1267	646.459	14.1042
11.1332	642.891	14.1726
11.1376	637.505	14.241
11.145	636.783	14.3093
11.1498	638.835	14.3777
11.1559	642.404	14.446
11.1621	655.906	14.5144
11.1666	666.655	14.5828
11.1729	671.384	14.6511
11.1788	674.924	14.7195
11.1839	682.936	14.7878
11.1899	679.961	14.8562
11.19452	674.0802	14.9246
11.20098	673.561	14.99292
11.20713	672.0304	15.0613
11.2123	673.804	15.1296
11.2181	683.217	15.198
11.2243	694.94	15.2664
11.2304	700.69	15.3347
11.2349	709.125	15.4031
11.2409	717.49	15.4714
11.2466	715.124	15.5398
11.253	710.137	15.6082
11.2583	708.804	15.6765
11.2636	707.1369	15.7449
11.2697	706.606	15.8132
11.2744	712.202	15.8816
11.2804	721.006	15.95
11.28661	727.402	16.0183
11.2927	735.988	16.08667
11.2988	747.197	16.155
11.3037	748.938	16.2234
11.30892	746.663	16.2917
11.3159	745.016	16.3601
11.3196	741.613	16.4285
11.3257	740.221	16.4968
11.3321	741.801	16.5652
11.3373	747.989	16.6335
11.3436	755.281	16.7019
11.3493	764.839	16.7703
11.355	776.29	16.8386
11.3595	780.341	16.907
11.3662	782.812	16.9753
11.3725	779.896	17.0437
11.3778	776.11	17.1121
11.38366	773.859	17.18042
11.3883	773.743	17.2488
11.3945	776.731	17.3171
11.3998	780.094	17.3855
11.4057	791.009	17.4539
11.4121	801.626	17.5222
11.4171	807.952	17.5906
11.423	811.739	17.6589
11.4278	813.461	17.7273
11.4342	809.698	17.7957
11.4398	808.382	17.864
11.4453	805.683	17.9324
11.4524	803.648	18.0007
11.457	807.6203	18.0691
11.4619	816.811	18.1375
11.4685	825.625	18.2058
11.47428	834.38	18.27417
11.4801	841.985	18.3425
11.4856	842.591	18.4109
11.492	840.878	18.4792
11.4977	839.801	18.5476
11.5024	837.185	18.616
11.50931	831.082	18.6843
11.51499	834.163	18.7527
11.52023	842.5083	18.821
11.525	849.604	18.8894
11.5313	856.687	18.9578
11.53729	865.271	19.0261
11.5424	869.561	19.0945
11.5491	872.054	19.1628
11.55475	871.921	19.2312
11.5596	869.617	19.2996
11.5656	861.98	19.36792
11.5712	860.95	19.4363
11.5767	867.199	19.5046
11.5823	872.682	19.573
11.5882	880.858	19.6414
11.5939	890.014	19.7097
11.5995	894.771	19.7781
11.6058	899.439	19.8464
11.6108	901.916	19.9148
[...]
13.9122	1079.696	47.5417
13.9176	1076.95	47.6101
13.92329	1072.65	47.6785
13.9299	1068.66	47.7468
13.9357	1067.62	47.8152
13.9404	1072.87	47.8835
13.9459	1080.23	47.9519
13.9527	1081.55	48.0203
13.9577	1086.8	48.0886
13.96403	1086.54	48.157
13.969	1082.62	48.2253
13.9745	1080.05	48.2937
13.9806	1074.48	48.3621
13.9863	1068.52	48.43042
13.9926	1066.42	48.4988
13.997	1072.88	48.5671
14.0031	1075.26	48.6355
14.0096	1079.99	48.7039
14.0151	1085.687	48.7722
14.0194	1085.92	48.8406
14.0271	1086.73	48.9089
14.03091	1082.939	48.9773
14.0379	1077.95	49.0457
14.0445	1069.6	49.114
14.0494	1067.92	49.1824
14.0544	1070.11	49.2507
14.0593	1070.87	49.3191
14.0656	1075.11	49.3875
14.0718	1082.501	49.4558
14.0768	1083.14	49.52417
14.0835	1087.07	49.5925
14.0882	1087.17	49.6609
14.0943	1079.81	49.7292
14.0995	1072.97	49.7976
14.106	1069.696	49.866
14.1118	1069.25	49.9343
14.1166	1065.67	50.0027
14.1229	1072.632	50.071
14.1288	1078.47	50.1394
14.1342	1082.17	50.2078
14.14	1086.517	50.2761
14.1456	1088.21	50.3445
14.151	1082.17	50.4128
14.1567	1074.24	50.4812
14.1628	1073.27	50.5496
14.169	1069.72	50.61792
14.1746	1066.19	50.6863
14.1793	1069.26	50.7546
14.1864	1074.24	50.823
14.1912	1077.94	50.8914
14.19663	1083.859	50.9597
14.202	1088.63	51.0281
14.2095	1083.23	51.0964
14.21361	1076.54	51.1648
14.2206	1076.88	51.2332
14.2255	1069.65	51.3015
14.2309	1065.47	51.3699
14.2377	1068.29	51.4382
14.2425	1070.31	51.5066
14.2483	1074.48	51.575
14.2543	1082.12	51.6433
14.2602	1084.33	51.71167
14.2659	1082.36	51.78
14.2712	1080.07	51.8484
14.2767	1080.359	51.9167
14.2836	1072.64	51.9851
14.2885	1066.32	52.0535
14.2931	1066.829	52.1218
14.2994	1066.75	52.1902
14.3046	1071.35	52.2585
14.3106	1077.9	52.3269
14.3161	1081.88	52.3953
14.3229	1081.58	52.4636
14.3286	1082.86	52.532
14.333	1084.79	52.6003
14.3381	1074.86	52.6687
14.3448	1070.54	52.7371
14.3509	1067.79	52.80542
14.3561	1066.37	52.8738
14.3616	1066.07	52.9421
14.3682	1073.46	53.0105
14.3742	1078.92	53.0789
14.38028	1078.63	53.1472
14.3844	1084.46	53.2156
14.3902	1083.47	53.2839
14.3962	1078.4	53.3523
14.4016	1072.76	53.4207
14.4078	1068.381	53.489
14.4128	1066.13	53.5574
14.4189	1064.71	53.6257
14.4249	1070.66	53.6941
14.4304	1071.93	53.7625
14.437	1075.2	53.8308
14.4413	1079.93	53.89917
14.4473	1081.89	53.9675
14.45345	1079.32	54.0359
14.4591	1076.13	54.1042
14.46481	1068.59	54.1726
14.4695	1067.303	54.241
14.4763	1065.66	54.3093
14.4814	1065.07	54.3777
14.4874	1065.77	54.446
14.4932	1072.09	54.5144
14.4983	1079.18	54.5828
14.5042	1080	54.6511
14.5099	1079.96	54.7195
14.5145	1077.58	54.7878
14.5218	1069.29	54.8562
14.528	1065.26	54.9246
14.5322	1062.83	54.99292
14.5386	1058.67	55.0613
14.5447	1058.06	55.1296
14.5505	1062.6	55.198
14.5639	-39.4304	55.2664
14.564	-34.5132	55.3347
14.5689	-29.3592	55.4031
14.575	-30.42318	55.4714
14.5787	-34.719	55.5398
14.5844	-38.0184	55.6082
14.5903	-43.6927	55.6765
14.5973	-50.291	55.7449
14.6017	-49.3702	55.8132
14.6077	-44.1651	55.8816
14.6129	-41.8732	55.95
14.6183	-36.78791	56.0183
14.6241	-30.9549	56.08667
14.6295	-32.2421	56.155
14.6348	-33.595	56.2234
14.6411	-35.63979	56.2917
14.64792	-42.1509	56.3601
14.6538	-51.2827	56.4285
14.6597	-49.3508	56.4968
14.6642	-45.44677	56.5652
14.6701	-46.5575	56.6335
14.676	-42.6829	56.7019
14.6817	-34.4468	56.7703
14.6878	-34.8543	56.8386
14.6929	-32.3555	56.907
14.6984	-33.5583	56.9753
14.7047	-41.0962	57.0437
14.711	-47.9933	57.1121
14.7168	-46.5591	57.18042
14.7205	-48.21096	57.2488
14.7275	-49.2998	57.3171
14.7318	-44.8966	57.3855
14.738	-37.4086	57.4539
14.7439	-34.07449	57.5222
14.7494	-32.74287	57.5906
14.7554	-31.3591	57.6589
14.7613	-37.836	57.7273
14.7629	-50.0641	57.7468