Folder: Stress_Strain_Analysis_Tools/data/processed_data_files/tensile (part 55)

File: 0.254_solid_uprint_typeiv_4545_r(5).dat
MTS793|BTW|ENU|1|2|.|/|:|1|0|0|A

Data Header:			0.254_solid_uprint_typeiv_4545_r0			Time:	20.0239	s	4/13/2019 6:56:31 PM
Data Acquisition:	Timed
Station Name:	ft40.cfg
Test File Name:	Type IV_Monotonic.tst
Displacement	Force	Running Time
mm	N	s
-40.0444	91.5717	0.0285645
-40.0434	92.2	0.0969238
-40.0377	95.3715	0.1652832
-40.0338	100.873	0.233643
-40.0271	109.161	0.302002
-40.02055	111.04	0.370361
-40.0144	111.849	0.4387207
-40.00988	116.159	0.50708
-40.0035	121.4965	0.575439
-39.9987	121.79	0.643799
-39.993	122.8318	0.7121582
-39.9876	128.299	0.780518
-39.9822	129.552	0.848877
-39.9758	135.866	0.917236
-39.9713	142.51	0.9855957
-39.9652	145.003	1.05396
-39.9588	146.599	1.12231
-39.954	151.913	1.19067
-39.9483	156.365	1.25903
-39.9423	157.832	1.32739
-39.9356	158.971	1.395752
-39.9301	163.287	1.46411
-39.9239	165.711	1.53247
-39.9187	170.05	1.60083
-39.9145	177.171	1.66919
-39.9074	179.063	1.73755
-39.9015	180.298	1.80591
-39.8966	186.785	1.87427
-39.891	193.115	1.942627
-39.8845	194.501	2.01099
-39.8793	195.887	2.07935
-39.87426	197.544	2.14771
-39.8683	199.749	2.21606
-39.8628	203.332	2.28442
-39.8563	209.078	2.35278
-39.8501	213.4	2.42114
-39.8457	214.903	2.489502
-39.83894	221.557	2.55786
-39.8337	226.877	2.62622
-39.8277	228.863	2.69458
-39.8216	229.682	2.76294
-39.8165	231.523	2.8313
-39.8105	233.693	2.89966
-39.8052	237.469	2.96802
-39.8003	241.602	3.036377
-39.79369	242.9509	3.10474
-39.7875	248.262	3.1731
-39.7824	253.724	3.24146
-39.7762	260.0311	3.30981
-39.7707	262.582	3.37817
-39.7649	264.4353	3.44653
-39.7601	267.354	3.51489
-39.7538	266.773	3.583252
-39.7493	272.099	3.65161
-39.7427	276.34	3.71997
-39.7379	275.966	3.78833
-39.7306	278.666	3.85669
-39.7254	286.083	3.92505
-39.7197	292.614	3.99341
-39.7143	294.703	4.06177
-39.7082	297.693	4.130127
-39.70393	300.696	4.19849
-39.6974	298.249	4.26685
-39.69001	301.161	4.33521
-39.6853	305.759	4.40356
-39.6797	305.414	4.47192
-39.6735	309.459	4.54028
-39.6692	316.402	4.60864
-39.6636	322.627	4.677002
-39.6566	324.837	4.74536
-39.6513	329.823	4.81372
-39.6462	331.863	4.88208
-39.6395	330.987	4.95044
-39.6356	333.2981	5.0188
-39.6291	335.814	5.08716
-39.6238	336.883	5.15552
-39.6162	338.133	5.223877
-39.6117	343.83	5.29224
-39.6052	352.285	5.3606
-39.5999	355.044	5.42896
-39.594	359.797	5.49731
-39.5888	362.265	5.56567
-39.5827	362.623	5.63403
-39.5782	364.564	5.70239
-39.5721	366.471	5.770752
-39.56654	364.379	5.83911
-39.5607	366.791	5.90747
-39.5542	372.122	5.97583
-39.5501	378.538	6.04419
-39.5441	382.269	6.11255
-39.53751	387.951	6.18091
-39.5313	390.991	6.24927
-39.5266	393.1138	6.317627
-39.5201	393.307	6.38599
-39.5141	396.727	6.45435
-39.5092	392.784	6.52271
-39.5047	395.841	6.59106
-39.4981	401.622	6.65942
-39.4919	405.246	6.72778
-39.4863	408.8591	6.79614
-39.4792	415.0394	6.864502
-39.475	416.487	6.93286
-39.4697	419.163	7.00122
-39.46352	422.057	7.06958
-39.4583	423.408	7.13794
-39.4527	421.1474	7.2063
-39.4465	420.967	7.27466
-39.4408	427.615	7.34302
-39.4359	430.832	7.411377
-39.4289	432.313	7.47974
-39.4238	439.909	7.5481
-39.4163	443.207	7.61646
-39.4125	444.759	7.68481
-39.406	447.388	7.75317
-39.4004	447.692	7.82153
-39.3942	445.8	7.88989
-39.3896	445.861	7.958252
-39.3828	452.715	8.02661
-39.3777	453.363	8.09497
-39.3718	456.003	8.16333
-39.367	462.185	8.23169
-39.3606	464.275	8.30005
-39.3553	468.042	8.36841
-39.3492	471.361	8.43677
-39.3436	473.6369	8.505127
-39.3384	469.617	8.57349
-39.3321	471.063	8.64185
-39.3261	475.176	8.71021
-39.32127	475.711	8.77856
-39.3155	474.215	8.84692
-39.31081	481.737	8.91528
-39.3049	484.814	8.98364
-39.2985	489.128	9.052002
-39.292	490.976	9.12036
-39.2863	492.9187	9.18872
-39.2796	492.136	9.25708
-39.2758	490.876	9.32544
-39.2699	495.063	9.3938
-39.2636	494.554	9.46216
-39.2581	494.642	9.53052
-39.2536	498.869	9.598877
-39.2479	501.1539	9.66724
-39.24054	505.628	9.7356
-39.2355	508.29	9.80396
-39.2308	509.367	9.87231
-39.22345	509.245	9.94067
-39.21909	508.3555	10.009
-39.2132	512.036	10.0774
-39.2071	510.2746	10.1458
-39.202	510.052	10.2141
-39.1962	514.086	10.2825
-39.1907	514.602	10.35083
-39.1847	517.567	10.4192
-39.1779	522.0155	10.4875
-39.1733	522.78	10.5559
-39.1679	520.818	10.6243
-39.1619	524.486	10.6926
-39.1558	525.888	10.761
-39.1502	524.317	10.8293
-39.1433	523.404	10.8977
-39.139	525.981	10.9661
-39.1336	523.452	11.0344
-39.1272	528.402	11.1028
-39.1213	531.328	11.1711
-39.1155	531.286	11.2395
-39.1111	530.44	11.3079
-39.1059	532.4386	11.3762
-39.0986	535.223	11.44458
-39.0935	532.856	11.5129
-39.0875	532.543	11.5813
-39.0819	531.3205	11.6497
-39.076	531.6828	11.718
-39.0692	531.071	11.7864
-39.06485	536.23	11.8547
-39.0584	536.516	11.9231
-39.0531	533.548	11.9915
-39.048	538.157	12.0598
-39.0418	540.505	12.1282
-39.0361	537.533	12.1965
-39.03	535.3844	12.2649
-39.0252	535.8183	12.3333
-39.0193	534.523	12.4016
-39.0135	534.6499	12.47
-39.0081	536.967	12.53833
-39.0027	536.283	12.6067
-38.9971	536.245	12.675
-38.9909	540.896	12.7434
-38.9854	542.777	12.8118
-38.9794	539.912	12.8801
-38.9744	539.505	12.9485
-38.96767	539.615	13.0168
-38.9626	535.708	13.0852
-38.9573	536	13.1536
-38.9508	535.851	13.2219
-38.9461	535.146	13.2903
-38.9398	536.099	13.3586
-38.9339	540.823	13.427
-38.92815	542.668	13.4954
-38.92149	542.071	13.5637
-38.916	541.086	13.63208
-38.9113	537.703	13.7004
-38.9042	537.8241	13.7688
-38.8999	535.366	13.8372
-38.8946	532.94	13.9055
-38.8877	532.308	13.9739
-38.8821	532.919	14.0422
-38.8773	538.51	14.1106
-38.8709	538.715	14.179
-38.8656	538.766	14.2473
-38.86031	540.75	14.3157
-38.8549	538.116	14.384
-38.8482	536.263	14.4524
-38.843	535.719	14.5208
-38.8373	532.46	14.5891
-38.8321	529.567	14.6575
-38.8258	532.313	14.72583
-38.8199	534.694	14.7942
-38.8144	534.877	14.8625
-38.8095	537.044	14.9309
-38.803	538.374	14.9993
-38.7964	536.684	15.0676
-38.7907	536.55	15.136
-38.7862	534.073	15.2043
-38.7802	529.59	15.2727
-38.7743	526.814	15.3411
-38.7686	529.777	15.4094
-38.7633	533.52	15.4778
-38.75695	533.103	15.5461
-38.752	535.669	15.6145
-38.7459	538.828	15.6829
-38.7403	535.252	15.7512
-38.7341	535.72	15.81958
-38.7291	535.497	15.8879
-38.7231	528.184	15.9563
-38.7169	526.324	16.0247
-38.711	528.557	16.093
-38.7061	531.535	16.1614
-38.7003	530.595	16.2297
-38.6937	531.963	16.2981
-38.6903	534.289	16.3665
-38.6835	533.879	16.4348
-38.6781	533.686	16.5032
-38.6704	534.17	16.5715
-38.6671	527.92	16.6399
-38.6608	524.9541	16.7083
-38.6544	527.315	16.7766
-38.64922	528.654	16.845
-38.64362	527.642	16.91333
-38.6378	531.291	16.9817
-38.6312	532.9433	17.05
-38.6259	533.686	17.1184
-38.6216	533.61	17.1868
-38.6147	532.997	17.2551
-38.6102	526.72	17.3235
-38.6038	524.42	17.3918
-38.5965	526.993	17.4602
-38.59103	526.795	17.5286
-38.5869	526.046	17.5969
-38.5807	528.343	17.6653
-38.574	530.218	17.7336
-38.5688	530.696	17.802
-38.5647	532.289	17.8704
-38.5568	531.39	17.9387
-38.55241	526.984	18.00708
-38.54631	527.7298	18.0754
-38.5413	527.128	18.1438
-38.53381	524.9668	18.2122
-38.5295	524.625	18.2805
-38.5231	526.3736	18.3489
-38.5175	525.76	18.4172
-38.5134	528.184	18.4856
-38.5072	530.423	18.554
-38.5011	529.412	18.6223
-38.4952	525.435	18.6907
-38.4894	526.962	18.759
-38.4842	527.613	18.8274
-38.47773	523.65	18.8958
-38.4726	523.667	18.9641
-38.4659	525.907	19.0325
-38.4616	523.068	19.10083
-38.455	526.052	19.1692
-38.4497	529.626	19.2375
[...]
-37.6997	516.764	28.2317
-37.6955	510.852	28.2903
-37.6906	514.412	28.3489
-37.6865	510.104	28.4075
-37.6814	511.234	28.4661
-37.6754	509.693	28.5247
-37.6703	513.439	28.5833
-37.6655	513.158	28.6418
-37.6626	516.037	28.7004
-37.6558	516.03	28.759
-37.65123	517.684	28.8176
-37.6464	518.66	28.8762
-37.6416	519.829	28.9348
-37.6355	519.883	28.9934
-37.6317	517.165	29.052
-37.6261	516.076	29.1106
-37.6222	515.079	29.1692
-37.6174	512.44	29.2278
-37.612	513.177	29.2864
-37.6069	510.821	29.345
-37.6022	512.942	29.4036
-37.5976	511.304	29.4622
-37.5929	513.015	29.5208
-37.5876	513.039	29.5793
-37.5817	513.413	29.6379
-37.5782	516.6098	29.6965
-37.5734	515.417	29.7551
-37.5693	518.2785	29.8137
-37.5628	515.857	29.8723
-37.5593	517.869	29.9309
-37.5547	512.095	29.9895
-37.5491	515.742	30.0481
-37.54369	510.293	30.1067
-37.5398	511.973	30.1653
-37.5341	507.851	30.2239
-37.5281	511.06	30.2825
-37.52491	507.718	30.3411
-37.5198	510.363	30.3997
-37.5154	511.008	30.4583
-37.5092	511.163	30.5168
-37.5045	513.593	30.5754
-37.5001	514.806	30.634
-37.495	516.066	30.6926
-37.4905	516.228	30.7512
-37.4848	517.804	30.8098
-37.4798	515.595	30.8684
-37.4757	517.582	30.927
-37.4711	513.3869	30.9856
-37.4653	512.939	31.0442
-37.461	512.204	31.1028
-37.4564	509.847	31.1614
-37.4525	509.603	31.22
-37.4471	507.096	31.2786
-37.4413	510.059	31.3372
-37.4366	508.603	31.3958
-37.432	511.862	31.4543
-37.4262	512.353	31.5129
-37.4228	513.502	31.5715
-37.4165	514.778	31.6301
-37.4122	514.789	31.6887
-37.4079	514.872	31.7473
-37.402	510.794	31.8059
-37.3986	514.976	31.8645
-37.3919	510.18	31.9231
-37.3873	511.301	31.9817
-37.3835	506.943	32.0403
-37.37846	508.8324	32.0989
-37.3739	503.851	32.1575
-37.3683	507.19	32.2161
-37.3633	505.565	32.2747
-37.3582	507.967	32.3333
-37.3529	511.681	32.3918
-37.3497	511.072	32.4504
-37.345	512.391	32.509
-37.3384	515.302	32.5676
-37.3341	514.297	32.6262
-37.3273	512.235	32.6848
-37.324	515.168	32.7434
-37.3192	511.536	32.802
-37.3141	510.8996	32.8606
-37.3102	511.057	32.9192
-37.3053	508.484	32.9778
-37.2999	508.396	33.0364
-37.29467	506.698	33.095
-37.2895	506.811	33.1536
-37.2854	505.688	33.2122
-37.2799	507.6058	33.2708
-37.2752	506.3179	33.3293
-37.2714	508.618	33.3879
-37.2656	509.484	33.4465
-37.2608	509.68	33.5051
-37.2564	511.608	33.5637
-37.2509	509.419	33.6223
-37.2474	512.146	33.6809
-37.2417	505.891	33.7395
-37.2359	509.398	33.7981
-37.2317	503.679	33.8567
-37.2262	504.791	33.9153
-37.2221	502.152	33.9739
-37.2178	503.782	34.0325
-37.21172	500.44	34.0911
-37.2073	501.801	34.1497
-37.2019	502.384	34.2083
-37.1965	503.196	34.2668
-37.1923	504.46	34.3254
-37.187	506.65	34.384
-37.1829	509.04	34.4426
-37.17802	507.268	34.5012
-37.1736	508.026	34.5598
-37.169	505.538	34.6184
-37.1633	502.617	34.677
-37.1587	502.056	34.7356
-37.1533	500.049	34.7942
-37.1483	495.928	34.8528
-37.144	492.201	34.9114
-37.1391	487.61	34.97
-37.1315	-27.6863	35.0286
-37.1275	-43.0264	35.0872
-37.1225	-43.80024	35.1458
-37.1188	-42.4883	35.2043
-37.1135	-37.9363	35.2629
-37.1092	-40.9931	35.3215
-37.104	-37.3681	35.3801
-37.0993	-39.7863	35.4387
-37.095	-37.1073	35.4973
-37.0888	-42.0075	35.5559
-37.0842	-37.479	35.6145
-37.0801	-42.0969	35.6731
-37.0746	-40.8785	35.7317
-37.07016	-44.5927	35.7903
-37.0653	-42.6687	35.8489
-37.0604	-45.5295	35.9075
-37.0557	-43.6324	35.9661
-37.0515	-43.7099	36.0247
-37.0458	-43.8812	36.0833
-37.0405	-40.2795	36.1418
-37.0359	-39.3317	36.2004
-37.0309	-37.2308	36.259
-37.0269	-38.5582	36.3176
-37.0223	-34.9903	36.3762
-37.0155	-35.07132	36.4348
-37.012	-37.2615	36.4934
-37.0073	-36.0407	36.552
-37.0025	-40.0629	36.6106
-36.9971	-38.95546	36.6692
-36.9957	-37.2005	36.679

File: 0.254_solid_uprint_typeiv_4545_r(6).dat
MTS793|BTW|ENU|1|2|.|/|:|1|0|0|A

Data Header:			0.254_solid_uprint_typeiv_4545_r0			Time:	20.01709	s	4/13/2019 7:01:33 PM
Data Acquisition:	Timed
Station Name:	ft40.cfg
Test File Name:	Type IV_Monotonic.tst
Displacement	Force	Running Time
mm	N	s
-40.0442	-208.335	0.0219727
-40.0438	-206.176	0.090332
-40.0378	-200.945	0.158691
-40.0316	-199.038	0.227051
-40.02655	-197.2252	0.29541
-40.0205	-192.9024	0.36377
-40.0153	-192.7545	0.432129
-40.0095	-187.013	0.500488
-40.0032	-181.313	0.568848
-39.998	-177.197	0.637207
-39.9915	-174.917	0.705566
-39.9857	-169.948	0.773926
-39.9813	-162.116	0.842285
-39.9756	-162.693	0.910645
-39.9706	-160.943	0.979004
-39.96299	-157.293	1.04736
-39.958	-157.822	1.11572
-39.95179	-152.931	1.184082
-39.9468	-147.374	1.25244
-39.9413	-145.121	1.3208
-39.9356	-141.208	1.38916
-39.9295	-133.977	1.45752
-39.9241	-127.115	1.52588
-39.9185	-126.315	1.59424
-39.9139	-123.6083	1.6626
-39.9059	-120.232	1.730957
-39.9004	-120.939	1.79932
-39.8953	-116.582	1.86768
-39.88895	-111.5488	1.93604
-39.8843	-110.402	2.00439
-39.87785	-108.012	2.07275
-39.87183	-99.25985	2.14111
-39.8667	-91.3475	2.20947
-39.8617	-90.0732	2.277832
-39.8559	-87.7402	2.34619
-39.85	-84.9361	2.41455
-39.8437	-82.9738	2.48291
-39.8379	-81.898	2.55127
-39.8327	-78.6386	2.61963
-39.8272	-75.0385	2.68799
-39.822	-73.4238	2.75635
-39.8157	-62.9944	2.824707
-39.8102	-57.04562	2.89307
-39.8036	-53.4234	2.96143
-39.7986	-50.354	3.02979
-39.793	-47.0924	3.09814
-39.7871	-46.6523	3.1665
-39.7812	-44.4557	3.23486
-39.7754	-41.2697	3.30322
-39.7702	-42.0911	3.371582
-39.7657	-38.2455	3.43994
-39.7587	-29.7662	3.5083
-39.7529	-23.5925	3.57666
-39.7473	-19.529	3.64502
-39.7428	-16.2905	3.71338
-39.7358	-12.2124	3.78174
-39.7306	-9.28917	3.8501
-39.7249	-7.42921	3.918457
-39.7186	-7.61401	3.98682
-39.7135	-7.90821	4.05518
-39.7078	-3.36552	4.12354
-39.7016	4.11164	4.19189
-39.6968	8.83108	4.26025
-39.6899	13.8675	4.32861
-39.6847	20.4986	4.39697
-39.6786	21.9454	4.465332
-39.6738	25.9795	4.53369
-39.6673	29.7934	4.60205
-39.66156	29.66065	4.67041
-39.65707	28.6252	4.73877
-39.6512	31.52594	4.80713
-39.64497	39.619	4.87549
-39.638	42.8241	4.94385
-39.6338	48.3374	5.012207
-39.6271	55.3906	5.08057
-39.6238	58.19268	5.14893
-39.618	60.9457	5.21729
-39.6113	65.6079	5.28564
-39.6044	66.5586	5.354
-39.5993	63.64212	5.42236
-39.5938	67.8457	5.49072
-39.588	76.1019	5.559082
-39.5822	78.9101	5.62744
-39.5779	82.2186	5.6958
-39.5707	90.4598	5.76416
-39.5663	93.0794	5.83252
-39.5608	97.6356	5.90088
-39.5543	101.535	5.96924
-39.54768	102.379	6.0376
-39.5428	100.003	6.105957
-39.5361	103.574	6.17432
-39.5304	109.308	6.24268
-39.5256	110.814	6.31104
-39.5205	115.854	6.37939
-39.5131	122.205	6.44775
-39.50856	127.741	6.51611
-39.503	131.3557	6.58447
-39.49757	134.708	6.652832
-39.4923	135.498	6.72119
-39.4857	135.503	6.78955
-39.4805	139.199	6.85791
-39.4754	144.058	6.92627
-39.4682	145.297	6.99463
-39.4624	148.806	7.06299
-39.457	154.86	7.13135
-39.45126	161.74	7.199707
-39.4458	167.635	7.26807
-39.44	170.261	7.33643
-39.4335	171.168	7.40479
-39.4286	171.829	7.47314
-39.4238	177.397	7.5415
-39.4169	178.409	7.60986
-39.4123	180.092	7.67822
-39.4059	184.036	7.746582
-39.4002	187.4335	7.81494
-39.3943	193.361	7.8833
-39.3886	199.323	7.95166
-39.3824	203.159	8.02002
-39.3777	204.892	8.08838
-39.3716	208.109	8.15674
-39.3659	212.406	8.2251
-39.3596	213.202	8.293457
-39.3542	214.073	8.36182
-39.34885	218.107	8.43018
-39.3434	220.0984	8.49854
-39.3369	225.4344	8.56689
-39.3327	232.3284	8.63525
-39.3259	236.4875	8.70361
-39.3217	235.826	8.77197
-39.3141	239.544	8.840332
-39.3085	247.507	8.90869
-39.3036	247.675	8.97705
-39.2982	247.554	9.04541
-39.2914	251.098	9.11377
-39.2859	254.01	9.18213
-39.2803	257.799	9.25049
-39.2752	263.893	9.31885
-39.2704	267.782	9.387207
-39.2645	268.431	9.45557
-39.2583	273.994	9.52393
-39.2523	281.18	9.59229
-39.2462	281.633	9.66064
-39.2401	281.262	9.729
-39.2348	285.619	9.79736
-39.2302	287.1918	9.86572
-39.2231	289.83	9.934082
-39.218	293.273	10.0024
-39.212	299.139	10.0708
-39.208	299.664	10.13916
-39.2008	304.68	10.20752
-39.1952	312.116	10.2759
-39.1901	313.654	10.3442
-39.184	315.016	10.4126
-39.1779	316.915	10.481
-39.1719	317.869	10.5493
-39.1676	319.306	10.6177
-39.1607	323.44	10.686
-39.1549	327.363	10.7544
-39.1491	330.294	10.8228
-39.1448	337.032	10.8911
-39.1388	344.3588	10.9595
-39.13166	345.944	11.0278
-39.126	347.91	11.0962
-39.1209	351.045	11.1646
-39.1155	348.1398	11.23291
-39.109	352.47	11.30127
-39.1051	353.045	11.3696
-39.0974	354.729	11.438
-39.0921	358.464	11.5063
-39.08704	366.123	11.5747
-39.0822	373.022	11.6431
-39.0759	374.568	11.7114
-39.0701	379.401	11.7798
-39.0644	380.5336	11.8481
-39.0584	378.4523	11.9165
-39.0522	380.9863	11.9849
-39.0463	384.194	12.0532
-39.0419	383.462	12.1216
-39.0359	383.8988	12.1899
-39.0303	393.9812	12.2583
-39.0233	399.301	12.32666
-39.0183	402.71	12.39502
-39.0131	407.486	12.4634
-39.0072	408.252	12.5317
-39.0019	409.899	12.6001
-38.9954	410.5603	12.6685
-38.9894	411.768	12.7368
-38.9836	410.332	12.8052
-38.979	410.249	12.8735
-38.9737	420.108	12.9419
-38.9679	424.595	13.0103
-38.9616	427.139	13.0786
-38.9554	433.271	13.147
-38.9499	437.342	13.2153
-38.944	438.487	13.2837
-38.9382	437.066	13.3521
-38.9333	438.7	13.42041
-38.9286	435.996	13.48877
-38.9199	437.649	13.5571
-38.916	445.446	13.6255
-38.9107	447.99	13.6938
-38.9042	451.72	13.7622
-38.8994	456.8588	13.8306
-38.8932	460.2558	13.8989
-38.88921	463.632	13.9673
-38.882	463.307	14.0356
-38.8767	463.829	14.104
-38.8712	460.866	14.1724
-38.8654	461.559	14.2407
-38.85899	467.482	14.3091
-38.8537	472.122	14.3774
-38.8468	475.4552	14.4458
-38.8413	479.506	14.51416
-38.838	482.762	14.58252
-38.8304	485.491	14.6509
-38.8238	488.048	14.7192
-38.8196	487.298	14.7876
-38.8143	484.6095	14.856
-38.8075	484.678	14.9243
-38.8023	489.026	14.9927
-38.7974	491.9332	15.061
-38.7916	495.443	15.1294
-38.7841	499.678	15.1978
-38.7796	502.344	15.2661
-38.7747	508.877	15.3345
-38.7678	510.097	15.4028
-38.7617	508.877	15.4712
-38.7577	505.423	15.5396
-38.7504	506.7439	15.60791
-38.7455	509.545	15.67627
-38.739	508.588	15.7446
-38.7337	511.401	15.813
-38.7268	517.032	15.8813
-38.7214	518.087	15.9497
-38.7157	525.081	16.0181
-38.7112	528.109	16.0864
-38.7059	525.6626	16.1548
-38.6994	521.489	16.2231
-38.6923	526.313	16.2915
-38.6881	527.0813	16.3599
-38.6814	524.751	16.4282
-38.6772	527.155	16.4966
-38.6704	529.854	16.5649
-38.6661	532.619	16.6333
-38.6598	535.424	16.70166
-38.6539	539.524	16.77002
-38.6492	538.518	16.8384
-38.6436	535.52	16.9067
-38.6366	539.425	16.9751
-38.6311	538.96	17.0435
-38.6253	535.44	17.1118
-38.6192	536.077	17.1802
-38.6138	538.5354	17.2485
-38.6087	540.8	17.3169
-38.6032	541.988	17.3853
-38.5968	545.349	17.4536
-38.5914	545.008	17.522
-38.5857	544.791	17.5903
-38.5804	546.296	17.6587
-38.5746	547.114	17.7271
-38.5691	543.966	17.79541
-38.5629	542.293	17.86377
-38.5564	541.4046	17.9321
-38.5504	543.074	18.0005
-38.5466	545.8	18.0688
-38.5403	547.631	18.1372
-38.5341	547.627	18.2056
-38.5289	548.527	18.2739
-38.5239	551.586	18.3423
-38.5171	550.511	18.4106
-38.5114	545.9726	18.479
-38.5054	545.008	18.5474
-38.5005	542.297	18.6157
-38.4958	544.885	18.6841
-38.4886	545.728	18.7524
-38.4829	544.318	18.8208
-38.478	545.016	18.88916
-38.4719	546.767	18.95752
-38.4655	549.3819	19.0259
[...]
-36.1197	-43.5153	47.17041
-36.1152	-40.0673	47.229
-36.1111	-38.0343	47.2876
-36.1068	-39.0232	47.3462
-36.1004	-36.268	47.4048
-36.0954	-38.1004	47.4634
-36.092	-38.1792	47.522
-36.0865	-38.3912	47.5806
-36.0811	-40.9633	47.63916
-36.0771	-40.91	47.6978
-36.07098	-43.3121	47.7563
-36.0666	-43.1704	47.8149
-36.0621	-46.06575	47.8735
-36.0575	-45.9527	47.9321
-36.0523	-46.86734	47.9907
-36.0484	-46.94202	48.0493
-36.0434	-43.7365	48.10791
-36.0363	-43.9576	48.1665
-36.0323	-41.325	48.2251
-36.029	-41.5229	48.2837
-36.0235	-38.4526	48.3423
-36.0175	-41.8394	48.4009
-36.013	-36.7751	48.4595
-36.0085	-43.4033	48.5181
-36.00333	-41.5832	48.57666
-35.9973	-45.31826	48.6353
-35.9938	-44.8212	48.6938
-35.98967	-46.7228	48.7524
-35.9832	-46.6505	48.811
-35.9793	-45.3685	48.8696
-35.9737	-46.1509	48.9282
-35.9697	-43.6097	48.9868
-35.9641	-42.0017	49.04541
-35.9578	-41.2474	49.104
-35.955	-40.6284	49.1626
-35.9492	-38.8136	49.2212
-35.945	-40.3341	49.2798
-35.9399	-38.3027	49.3384
-35.9354	-35.1207	49.397
-35.9289	-40.311	49.4556
-35.9259	-40.1376	49.51416
-35.9204	-41.5935	49.5728
-35.9157	-41.3248	49.6313
-35.91198	-45.4124	49.6899
-35.9059	-42.2515	49.7485
-35.901	-45.8086	49.8071
-35.8961	-46.458	49.8657
-35.8917	-45.1175	49.9243
-35.8862	-45.45713	49.98291
-35.8798	-41.9525	50.0415
-35.8757	-42.7828	50.1001
-35.8727	-38.3663	50.1587
-35.8669	-42.5273	50.2173
-35.8628	-36.9803	50.2759
-35.8569	-41.144	50.3345
-35.8508	-39.1736	50.3931
-35.847	-43.504	50.45166
-35.8424	-42.9352	50.5103
-35.8371	-46.4041	50.5688
-35.8335	-45.5595	50.6274
-35.82795	-45.1102	50.686
-35.8232	-46.3583	50.7446
-35.8189	-43.54549	50.8032
-35.8124	-42.7658	50.8618
-35.8077	-41.366	50.92041
-35.8021	-41.268	50.979
-35.7978	-39.8714	51.0376
-35.79417	-39.8727	51.0962
-35.7881	-38.3983	51.1548
-35.7842	-38.2366	51.2134
-35.7787	-40.0487	51.272
-35.7742	-37.79435	51.3306
-35.7686	-40.6926	51.38916
-35.7644	-39.8127	51.4478
-35.7592	-43.6924	51.5063
-35.75518	-41.7583	51.5649
-35.7495	-46.189	51.6235
-35.7442	-45.52174	51.6821
-35.7386	-44.9674	51.7407
-35.7342	-46.0481	51.7993
-35.7294	-41.4032	51.85791
-35.7254	-43.1764	51.9165
-35.721	-39.55793	51.9751
-35.7161	-42.7087	52.0337
-35.7122	-37.6018	52.0923
-35.706	-40.9465	52.1509
-35.70105	-38.5034	52.2095
-35.6957	-41.8653	52.2681
-35.6915	-40.0549	52.32666
-35.6856	-44.2285	52.3853
-35.6814	-42.1724	52.4438
-35.6761	-44.3165	52.5024
-35.6706	-45.4575	52.561
-35.6678	-43.2049	52.6196
-35.6624	-45.1361	52.6782
-35.65696	-42.98608	52.7368
-35.6516	-42.1136	52.79541
-35.6475	-40.1854	52.854
-35.6412	-40.4091	52.9126
-35.637	-36.6635	52.9712
-35.6328	-37.1252	53.0298
-35.6279	-38.3271	53.0884
-35.6223	-38.1304	53.147
-35.617	-38.7779	53.2056
-35.6122	-40.1664	53.26416
-35.6073	-42.5169	53.3228
-35.6032	-41.3266	53.3813
-35.5978	-45.4898	53.4399
-35.592	-44.185	53.4985
-35.58831	-46.0102	53.5571
-35.5839	-45.0486	53.6157
-35.5792	-43.5614	53.6743
-35.5732	-44.9621	53.73291
-35.5684	-42.1579	53.7915
-35.5642	-42.2592	53.8501
-35.5588	-37.9618	53.9087
-35.5549	-41.6263	53.9673
-35.5482	-36.8604	54.0259
-35.5438	-41.2543	54.0845
-35.54	-39.16354	54.1431
-35.5355	-41.4121	54.20166
-35.5292	-41.7956	54.2603
-35.525	-44.6025	54.3188
-35.5211	-45.1156	54.3774
-35.5148	-43.9928	54.436
-35.5096	-45.5998	54.4946
-35.5045	-43.5479	54.5532
-35.5025	-43.3567	54.6118
-35.4949	-40.8418	54.67041
-35.4904	-41.26223	54.729
-35.4856	-39.4144	54.7876
-35.4812	-39.9733	54.8462
-35.4759	-38.6791	54.9048
-35.4712	-36.5316	54.9634
-35.4656	-39.4402	55.022
-35.4613	-38.77718	55.0806
-35.4569	-41.9766	55.13916
-35.4515	-40.1874	55.1978
-35.4469	-44.2471	55.2563
-35.4413	-42.3167	55.3149
-35.44022	-41.203	55.3247