Folder: Stress_Strain_Analysis_Tools/data/processed_data_files/tensile (part 37)

File: 0.254_solid_dimension_typeiv_090_r(4).dat
MTS793|BTW|ENU|1|2|.|/|:|1|0|0|A

Data Header:			0.254_solid_dimension_typeiv_090_r0			Time:	20.0176	s	4/14/2019 1:43:05 AM
Data Acquisition:	Timed
Station Name:	ft40.cfg
Test File Name:	monotonic_0.2540_typeiv_solid_090_dimension.tst
Displacement	Force	Running Time
mm	N	s
-40.0424	-308.504	0.0227051
-40.0403	-310.223	0.0910645
-40.033	-308.609	0.159424
-40.0281	-299.719	0.2277832
-40.0218	-299.517	0.296143
-40.0176	-301.615	0.364502
-40.0113	-296.959	0.432861
-40.0056	-295.568	0.5012207
-40.0004	-292.954	0.56958
-39.9944	-286.132	0.637939
-39.9886	-281.855	0.706299
-39.9836	-280.19	0.7746582
-39.9777	-276.847	0.843018
-39.9725	-269.5134	0.911377
-39.9657	-268.106	0.979736
-39.9618	-269.201	1.0481
-39.9548	-265.552	1.11646
-39.9502	-262.724	1.18481
-39.9436	-260.282	1.25317
-39.9384	-257.78	1.32153
-39.9312	-250.652	1.38989
-39.9254	-249.8951	1.458252
-39.9207	-244.105	1.52661
-39.9146	-236.228	1.59497
-39.909	-235.495	1.66333
-39.9037	-233.642	1.73169
-39.8966	-231.217	1.80005
-39.893	-229.769	1.86841
-39.88644	-227.919	1.93677
-39.8817	-223.3232	2.005127
-39.875	-221.95	2.07349
-39.8683	-217.201	2.14185
-39.8633	-209.471	2.21021
-39.8591	-204.936	2.27856
-39.8519	-202.469	2.34692
-39.8467	-199.734	2.41528
-39.84053	-194.619	2.48364
-39.8354	-194.719	2.552002
-39.8298	-191.486	2.62036
-39.8244	-189.033	2.68872
-39.8177	-186.634	2.75708
-39.8124	-183.692	2.82544
-39.8064	-176.274	2.8938
-39.8015	-172.112	2.96216
-39.7956	-168.345	3.03052
-39.7897	-163.977	3.098877
-39.7838	-160.76	3.16724
-39.7798	-157.677	3.2356
-39.7735	-155.834	3.30396
-39.76701	-154.163	3.37231
-39.7627	-153.843	3.44067
-39.7552	-149.725	3.50903
-39.7503	-143.286	3.57739
-39.7446	-137.966	3.645752
-39.7399	-134.031	3.71411
-39.73283	-129.905	3.78247
-39.7281	-125.254	3.85083
-39.7215	-121.3346	3.91919
-39.7161	-118.335	3.98755
-39.7093	-118.488	4.05591
-39.7047	-118.0362	4.12427
-39.699	-114.273	4.192627
-39.692	-108.825	4.26099
-39.68766	-104.744	4.32935
-39.6818	-98.6226	4.39771
-39.676	-92.8984	4.46606
-39.6698	-89.8047	4.53442
-39.6636	-85.0322	4.60278
-39.659	-81.3791	4.67114
-39.6528	-81.0948	4.739502
-39.6478	-81.4116	4.80786
-39.6427	-78.0395	4.87622
-39.6357	-73.5359	4.94458
-39.6303	-70.5035	5.01294
-39.6252	-64.6363	5.0813
-39.6184	-59.6249	5.14966
-39.6138	-54.7019	5.21802
-39.6085	-48.3157	5.286377
-39.6024	-45.4484	5.35474
-39.5966	-46.7138	5.4231
-39.5919	-46.1077	5.49146
-39.5845	-40.7407	5.55981
-39.5797	-37.6982	5.62817
-39.5735	-35.6304	5.69653
-39.5672	-26.9866	5.76489
-39.5618	-25.1543	5.833252
-39.55452	-19.2524	5.90161
-39.5506	-12.14462	5.96997
-39.5453	-8.39299	6.03833
-39.5392	-10.7176	6.10669
-39.5331	-8.88631	6.17505
-39.5273	-0.775096	6.24341
-39.5226	-2.59265	6.31177
-39.5166	-1.70634	6.380127
-39.5101	5.58089	6.44849
-39.5052	8.2137	6.51685
-39.4987	15.6926	6.58521
-39.4936	22.9073	6.65356
-39.4879	26.1902	6.72192
-39.4823	24.3061	6.79028
-39.476	30.327	6.85864
-39.4706	36.2465	6.927002
-39.4654	33.4646	6.99536
-39.4592	36.67271	7.06372
-39.4537	41.8805	7.13208
-39.44836	44.0945	7.20044
-39.4425	50.0668	7.2688
-39.4372	57.27718	7.33716
-39.4314	60.9745	7.40552
-39.4249	59.9885	7.473877
-39.42	68.0274	7.54224
-39.4145	71.4798	7.6106
-39.4086	70.9687	7.67896
-39.4025	72.8251	7.74731
-39.3969	76.08316	7.81567
-39.3912	78.9402	7.88403
-39.386	84.0315	7.95239
-39.3804	92.0005	8.020752
-39.3742	94.2709	8.08911
-39.3681	97.5973	8.15747
-39.3636	104.511	8.22583
-39.3583	108.487	8.29419
-39.3505	107.144	8.36255
-39.3466	109.0286	8.43091
-39.3405	113.394	8.49927
-39.334	116.009	8.567627
-39.3291	117.708	8.63599
-39.3231	126.367	8.70435
-39.3167	127.21	8.77271
-39.3106	132.982	8.84106
-39.3055	140.694	8.90942
-39.2996	141.731	8.97778
-39.2947	143.215	9.04614
-39.2899	145.013	9.114502
-39.2829	145.812	9.18286
-39.2774	150.979	9.25122
-39.2717	154.4567	9.31958
-39.26664	159.573	9.38794
-39.2605	161.103	9.4563
-39.2553	165.673	9.52466
-39.2484	173.515	9.59302
-39.24292	177.18	9.661377
-39.2372	178.257	9.72974
-39.2317	179.722	9.7981
-39.22562	182.419	9.86646
-39.2216	186.223	9.93481
-39.2144	188.482	10.0032
-39.2088	189.7149	10.0715
-39.2039	193.233	10.1399
-39.199	200.498	10.2083
-39.192	207.374	10.2766
-39.1853	211.59	10.345
-39.1801	213.719	10.41333
-39.1775	216.078	10.4817
-39.1695	218.7511	10.55
-39.1626	220.586	10.6184
-39.1577	222.27	10.6868
-39.1506	224.304	10.7551
-39.1466	226.446	10.8235
-39.1407	235.812	10.8918
-39.1357	239.973	10.9602
-39.129	243.574	11.0286
-39.1238	248.795	11.0969
-39.1185	249.13	11.1653
-39.1109	253.466	11.2336
-39.1063	254.83	11.302
-39.1009	255.458	11.3704
-39.0952	253.946	11.4387
-39.0891	259.771	11.50708
-39.0837	268.017	11.5754
-39.0784	268.962	11.6438
-39.0723	275.4108	11.7122
-39.0673	282.724	11.7805
-39.0602	282.969	11.8489
-39.05481	288.009	11.9172
-39.04932	290.866	11.9856
-39.0432	287.935	12.054
-39.0377	288.889	12.1223
-39.033	293.719	12.1907
-39.026	297.806	12.259
-39.0215	300.419	12.3274
-39.0155	307.481	12.3958
-39.0094	311.845	12.4641
-39.0038	314.419	12.5325
-38.9979	319.02	12.60083
-38.9925	322.769	12.6692
-38.9872	322.21	12.7375
-38.9814	322	12.8059
-38.9751	326.3949	12.8743
-38.9697	327.4707	12.9426
-38.9636	328.265	13.011
-38.958	337.281	13.0793
-38.95245	341.99	13.1477
-38.94611	345.1	13.2161
-38.9411	349.874	13.2844
-38.9363	354.74	13.3528
-38.9302	352.401	13.4211
-38.925	352.691	13.4895
-38.9192	357.744	13.5579
-38.913	359.107	13.6262
-38.907	356.994	13.69458
-38.9014	363.535	13.7629
-38.8962	369.283	13.8313
-38.88995	374.498	13.8997
-38.884	381.001	13.968
-38.8788	383.1062	14.0364
-38.8747	380.402	14.1047
-38.8671	384.079	14.1731
-38.8608	387.981	14.2415
-38.855	386.848	14.3098
-38.8503	388.4025	14.3782
-38.8447	393.366	14.4465
-38.8394	396.1434	14.5149
-38.8335	401.397	14.5833
-38.828	406.705	14.6516
-38.8211	410.488	14.72
-38.8155	408.826	14.78833
-38.8105	412.842	14.8567
-38.8046	416.355	14.925
-38.7985	412.631	14.9934
-38.7933	413.738	15.0618
-38.7867	418.344	15.1301
-38.7818	420.612	15.1985
-38.7775	424.121	15.2668
-38.7704	430.093	15.3352
-38.7652	432.759	15.4036
-38.7582	433.629	15.4719
-38.7537	438.313	15.5403
-38.7464	440.178	15.6086
-38.7428	437.184	15.677
-38.7366	438.109	15.7454
-38.7305	440.469	15.8137
-38.72543	442.834	15.88208
-38.7189	446.205	15.9504
-38.7121	450.478	16.0188
-38.7071	452.572	16.0872
-38.702	453.974	16.1555
-38.6968	460.556	16.2239
-38.6904	460.597	16.2922
-38.68576	458.6608	16.3606
-38.6796	458.586	16.429
-38.6737	459.034	16.4973
-38.6677	460.5065	16.5657
-38.6631	463.097	16.634
-38.6568	465.286	16.7024
-38.6505	468.158	16.7708
-38.6449	469.516	16.8391
-38.6398	474.668	16.9075
-38.6333	474.336	16.97583
-38.62822	474.245	17.0442
-38.6229	473.533	17.1125
-38.6173	471.408	17.1809
-38.6127	473.407	17.2493
-38.6047	472.914	17.3176
-38.59927	472.327	17.386
-38.59444	473.926	17.4543
-38.589	478.5239	17.5227
-38.5835	481.456	17.5911
-38.5763	481.4437	17.6594
-38.5713	482.852	17.7278
-38.5653	480.323	17.7961
-38.5602	478.073	17.8645
-38.5541	478.722	17.9329
-38.5485	476.304	18.0012
-38.5422	474.523	18.06958
-38.5381	474.617	18.1379
-38.5313	480.567	18.2063
-38.5257	481.047	18.2747
-38.5187	481.682	18.343
-38.5141	483.333	18.4114
-38.5089	480.109	18.4797
-38.5026	480.682	18.5481
-38.4971	478.498	18.6165
-38.4916	477.55	18.6848
-38.4855	472.958	18.7532
-38.4809	470.453	18.8215
-38.47435	476.353	18.8899
-38.4695	475.904	18.9583
[...]
-38.055	456.882	23.929
-38.0511	460.644	23.968
-38.0483	455.68	24.00708
-38.044	459.66	24.0461
-38.04092	458.158	24.0852
-38.0378	455.681	24.1243
-38.0351	461.3905	24.16333
-38.0322	453.432	24.2024
-38.0285	455.655	24.2415
-38.0248	462.47	24.2805
-38.0211	451.089	24.31958
-38.0188	458.76	24.3586
-38.0154	459.138	24.3977
-38.0115	451.774	24.4368
-38.009	461.025	24.47583
-38.00602	458.082	24.5149
-38.0028	455.397	24.554
-37.9992	460.487	24.593
-37.9962	455.588	24.63208
-37.99194	457.0188	24.6711
-37.9899	459.742	24.7102
-37.9867	456.85	24.7493
-37.9821	461.438	24.78833
-37.9793	456.318	24.8274
-37.9769	457.3699	24.8665
-37.9731	462.45	24.9055
-37.9688	452.951	24.94458
-37.9669	460.902	24.9836
-37.9634	458.789	25.0227
-37.9592	455.158	25.0618
-37.957	460.145	25.10083
-37.9527	455.313	25.1399
-37.9514	455.896	25.179
-37.9464	459.792	25.218
-37.9438	452.009	25.25708
-37.9406	457.0903	25.2961
-37.9364	455.234	25.3352
-37.9352	452.803	25.3743
-37.9314	459.679	25.41333
-37.928	453.149	25.4524
-37.9251	454.156	25.4915
-37.922	458.783	25.5305
-37.917	452.769	25.56958
-37.9153	456.502	25.6086
-37.9119	458.394	25.6477
-37.9079	449.758	25.6868
-37.9046	459.088	25.72583
-37.9015	454.523	25.7649
-37.8987	453.068	25.804
-37.8948	458.193	25.843
-37.8916	453.071	25.88208
-37.8893	457.718	25.9211
-37.8851	455.68	25.9602
-37.8806	455.293	25.9993
-37.8782	460.621	26.03833
-37.876	454.539	26.0774
-37.8721	456.103	26.1165
-37.8687	461.454	26.1555
-37.8671	452.875	26.19458
-37.8614	458.594	26.2336
-37.8592	459.87	26.2727
-37.8568	453.237	26.3118
-37.8517	460.46	26.35083
-37.8491	454.0108	26.3899
-37.8467	454.936	26.429
-37.8427	458.907	26.468
-37.8393	451.644	26.50708
-37.8364	455.228	26.5461
-37.8329	455.091	26.5852
-37.8301	451.198	26.6243
-37.82687	458.049	26.66333
-37.82267	451.616	26.7024
-37.8201	450.681	26.7415
-37.8167	459.463	26.7805
-37.81377	448.199	26.81958
-37.8096	457.078	26.8586
-37.807	455.65	26.8977
-37.8039	450.699	26.9368
-37.8005	455.85	26.97583
-37.7968	454.364	27.0149
-37.7945	452.339	27.054
-37.79	456.983	27.093
-37.7878	452.2627	27.13208
-37.7845	456.6	27.1711
-37.7813	455.186	27.2102
-37.779	452.414	27.2493
-37.774	460.274	27.28833
-37.7711	452.749	27.3274
-37.7668	456.131	27.3665
-37.7643	458.778	27.4055
-37.7617	450.4296	27.44458
-37.7571	456.699	27.4836
-37.754	456.62	27.5227
-37.751	451.52	27.5618
-37.7494	457.676	27.60083
-37.74477	453.409	27.6399
-37.7414	451.341	27.679
-37.7388	457.233	27.718
-37.736	448.83	27.75708
-37.7323	454.596	27.7961
-37.73035	452.103	27.8352
-37.7256	449.064	27.8743
-37.7225	456.307	27.91333
-37.7194	447.9549	27.9524
-37.7154	451.163	27.9915
-37.7119	457.579	28.0305
-37.7096	447.411	28.06958
-37.7054	453.662	28.1086
-37.7033	455.058	28.1477
-37.6986	447.352	28.1868
-37.6959	455.843	28.22583
-37.6942	451.232	28.2649
-37.6903	451.1033	28.304
-37.687	455.313	28.343
-37.6839	450.283	28.38208
-37.6795	454.738	28.4211
-37.6759	451.181	28.4602
-37.6728	450.135	28.4993
-37.6706	455.4903	28.53833
-37.6672	451.725	28.5774
-37.6645	451.59	28.6165
-37.6608	456.457	28.6555
-37.6563	447.856	28.69458
-37.6541	454.866	28.7336
-37.6516	451.8519	28.7727
-37.647	445.484	28.8118
-37.6442	452.329	28.85083
-37.6401	447.02	28.8899
-37.6378	446.793	28.929
-37.6358	447.644	28.968
-37.631	438.351	29.00708
-37.6241	-25.2796	29.0461
-37.6231	-39.9722	29.0852
-37.6205	-47.7775	29.1243
-37.6173	-36.5121	29.16333
-37.6133	-47.1372	29.2024
-37.61058	-45.2934	29.2415
-37.6065	-37.7219	29.2805
-37.6051	-47.764	29.31958
-37.6015	-40.3159	29.3586
-37.5983	-41.1492	29.3977
-37.5956	-44.9052	29.4368
-37.5909	-40.9691	29.47583
-37.5894	-41.5427	29.5149
-37.5857	-43.6494	29.554
-37.5827	-40.3533	29.5833

File: 0.254_solid_dimension_typeiv_090_r(5).dat
MTS793|BTW|ENU|1|2|.|/|:|1|0|0|A

Data Header:			0.254_solid_dimension_typeiv_090_r0			Time:	20.0266	s	4/14/2019 1:45:00 AM
Data Acquisition:	Timed
Station Name:	ft40.cfg
Test File Name:	monotonic_0.2540_typeiv_solid_090_dimension.tst
Displacement	Force	Running Time
mm	N	s
-40.0402	-126.694	0.0310059
-40.0411	-121.954	0.0993652
-40.03474	-121.146	0.167725
-40.028	-116.379	0.236084
-40.0212	-111.48	0.304443
-40.0164	-109.446	0.372803
-40.0108	-106.89	0.441162
-40.0049	-103.534	0.509521
-39.9998	-102.8676	0.577881
-39.9934	-102.658	0.64624
-39.9892	-96.6464	0.7146
-39.9822	-88.6469	0.782959
-39.9773	-83.3091	0.851318
-39.9712	-80.0469	0.919678
-39.9657	-73.494	0.988037
-39.9593	-74.0253	1.0564
-39.9544	-69.224	1.12476
-39.9482	-67.1357	1.19312
-39.9436	-65.127	1.26147
-39.9365	-66.7247	1.329834
-39.9323	-61.2262	1.39819
-39.9263	-52.72	1.46655
-39.9205	-49.9715	1.53491
-39.9146	-45.08585	1.60327
-39.9083	-39.1823	1.67163
-39.9023	-36.779	1.73999
-39.8967	-32.6336	1.80835
-39.8915	-29.905	1.876709
-39.88665	-28.5571	1.94507
-39.8793	-30.0492	2.01343
-39.8739	-26.7717	2.08179
-39.8694	-18.148	2.15015
-39.86322	-14.9275	2.21851
-39.8574	-8.661869	2.28687
-39.8515	-2.68192	2.35522
-39.8445	-0.875972	2.423584
-39.8391	4.37382	2.49194
-39.8361	6.77004	2.5603
-39.8286	8.67381	2.62866
-39.8231	8.35965	2.69702
-39.8182	11.0059	2.76538
-39.8113	16.4515	2.83374
-39.8072	22.06185	2.9021
-39.8005	27.2068	2.970459
-39.7959	30.8583	3.03882
-39.7884	35.5239	3.10718
-39.7831	41.54752	3.17554
-39.7784	44.2167	3.2439
-39.7716	43.7067	3.31226
-39.7646	45.5543	3.38062
-39.7603	49.531	3.44897
-39.7552	53.0816	3.517334
-39.74826	56.3015	3.58569
-39.7436	61.0516	3.65405
-39.7369	65.429	3.72241
-39.7312	70.7248	3.79077
-39.7262	78.155	3.85913
-39.7206	83.1241	3.92749
-39.7157	80.9952	3.99585
-39.7101	82.537	4.064209
-39.7039	87.58326	4.13257
-39.6981	90.7909	4.20093
-39.6932	92.3527	4.26929
-39.6853	98.3935	4.33765
-39.682	100.887	4.40601
-39.6764	106.102	4.47437
-39.6698	111.828	4.54272
-39.6639	119.496	4.611084
-39.6589	118.642	4.67944
-39.6528	118.5428	4.7478
-39.6467	125.452	4.81616
-39.6408	127.177	4.88452
-39.6342	127.424	4.95288
-39.6301	133.32	5.02124
-39.6241	137.601	5.0896
-39.6182	140.82	5.157959
-39.6128	147.803	5.22632
-39.6076	151.914	5.29468
-39.6005	153.016	5.36304
-39.5951	155.728	5.4314
-39.5904	161.216	5.49976
-39.5841	162.74	5.56812
-39.5793	163.234	5.63647
-39.573	165.629	5.704834
-39.5674	170.153	5.77319
-39.5622	172.709	5.84155
-39.5565	180.135	5.90991
-39.55056	184.984	5.97827
-39.544	187.431	6.04663
-39.5386	190.071	6.11499
-39.533	196.515	6.18335
-39.5277	199.702	6.251709
-39.5207	198.815	6.32007
-39.5164	200.683	6.38843
-39.5084	205.292	6.45679
-39.5055	207.102	6.52515
-39.4984	212.723	6.59351
-39.4932	218.364	6.66187
-39.4882	220.824	6.73022
-39.482	222.056	6.798584
-39.4759	232.086	6.86694
-39.4708	233.944	6.9353
-39.4638	233.165	7.00366
-39.4581	237.176	7.07202
-39.4533	238.998	7.14038
-39.4475	241.63	7.20874
-39.4414	244.7919	7.2771
-39.4357	252.605	7.345459
-39.4312	254.145	7.41382
-39.4243	256.844	7.48218
-39.4202	265.087	7.55054
-39.4135	267.774	7.6189
-39.4084	268.925	7.68726
-39.4029	268.978	7.75562
-39.3975	272.476	7.82397
-39.3902	274.779	7.892334
-39.3849	276.859	7.96069
-39.3786	283.318	8.02905
-39.373	285.166	8.09741
-39.3681	289.255	8.16577
-39.3629	298.064	8.23413
-39.3578	301.192	8.30249
-39.3509	301.806	8.37085
-39.3441	304.29	8.439209
-39.33868	303.388	8.50757
-39.3335	307.19	8.57593
-39.3286	309.36	8.64429
-39.3216	312.32	8.71265
-39.3161	315.343	8.78101
-39.3111	319.954	8.84937
-39.305	327.46	8.91772
-39.2991	331.4086	8.986084
-39.2942	333.703	9.05444
-39.2889	335.229	9.1228
-39.2827	335.979	9.19116
-39.2772	339.949	9.25952
-39.2707	341.961	9.32788
-39.2663	343.086	9.39624
-39.2593	343.629	9.4646
-39.2539	349.427	9.532959
-39.2482	357.032	9.60132
-39.2425	360.769	9.66968
-39.2371	364.005	9.73804
-39.2313	366.0065	9.8064
-39.225	366.773	9.87476
-39.2197	369.887	9.94312
-39.21384	370.772	10.0115
-39.2087	370.481	10.0798
-39.2022	373.125	10.1482
-39.1969	376.54	10.2166
-39.1916	384.422	10.2849
-39.186	386.754	10.3533
-39.1802	394.094	10.4216
-39.1738	397.043	10.48999
-39.1693	396.46	10.55835
-39.1625	399.338	10.6267
-39.1568	401.085	10.6951
-39.15247	399.08	10.7634
-39.1464	399.449	10.8318
-39.1404	406.4314	10.9001
-39.1349	410.518	10.9685
-39.1293	411.122	11.0369
-39.1234	417.629	11.1052
-39.1169	422.886	11.1736
-39.1118	424.019	11.2419
-39.1056	425.556	11.3103
-39.101	427.6763	11.3787
-39.09478	423.6828	11.447
-39.0894	423.382	11.5154
-39.0826	430.565	11.58374
-39.0775	432.017	11.6521
-39.072	433.773	11.7205
-39.0667	439.372	11.7888
-39.0606	443.746	11.8572
-39.0545	445.77	11.9255
-39.0497	449.242	11.9939
-39.043	449.968	12.0623
-39.0383	445.907	12.1306
-39.0321	445.367	12.199
-39.0263	450.9538	12.2673
-39.0212	451.492	12.3357
-39.01569	451.279	12.4041
-39.0084	459.88	12.4724
-39.0046	461.296	12.5408
-38.998	464.481	12.6091
-38.993	463.959	12.67749
-38.98568	466.81	12.74585
-38.9802	462.845	12.8142
-38.97472	461.145	12.8826
-38.9696	465.377	12.9509
-38.9621	463.4548	13.0193
-38.9581	464.504	13.0876
-38.9526	469.831	13.156
-38.9466	471.073	13.2244
-38.9411	473.046	13.2927
-38.9347	475.0311	13.3611
-38.928	476.312	13.4294
-38.92458	471.683	13.4978
-38.9172	470.264	13.5662
-38.9126	474.225	13.6345
-38.90609	472.084	13.7029
-38.9015	469.667	13.77124
-38.8955	472.564	13.8396
-38.8892	473.669	13.908
-38.8842	476.291	13.9763
-38.8781	478.441	14.0447
-38.8727	479.206	14.113
-38.8677	473.318	14.1814
-38.8616	473.156	14.2498
-38.8539	474.437	14.3181
-38.8494	470.901	14.3865
-38.8433	468.842	14.4548
-38.8384	470.046	14.5232
-38.8318	469.624	14.5916
-38.8275	471.683	14.6599
-38.8212	474.4101	14.7283
-38.8159	473.211	14.7966
-38.809	471.4935	14.86499
-38.8043	471.142	14.93335
-38.7984	471.749	15.0017
-38.793	467.359	15.0701
-38.7864	465.416	15.1384
-38.7823	464.595	15.2068
-38.77573	463.786	15.2751
-38.7698	465.44	15.3435
-38.764	466.664	15.4119
-38.7584	466.112	15.4802
-38.7519	464.139	15.5486
-38.7479	469.343	15.6169
-38.7418	468.164	15.6853
-38.7361	463.314	15.7537
-38.7314	461.952	15.822
-38.7238	458.385	15.8904
-38.7195	458.345	15.95874
-38.714	461.128	16.0271
-38.7073	461.449	16.0955
-38.7022	458.823	16.1638
-38.6965	461.182	16.2322
-38.6912	465.105	16.3005
-38.68457	462.698	16.3689
-38.6786	461.518	16.4373
-38.6731	460.031	16.5056
-38.6684	456.001	16.574
-38.6621	456.588	16.6423
-38.6562	458.542	16.7107
-38.6507	456.007	16.7791
-38.6461	454.05	16.8474
-38.63895	457.464	16.9158
-38.63369	462.524	16.9841
-38.628	458.108	17.05249
-38.6219	459.922	17.12085
-38.61607	458.193	17.1892
-38.611	452.47	17.2576
-38.6051	454.6973	17.3259
-38.5979	455.155	17.3943
-38.5941	451.788	17.4626
-38.5878	450.315	17.531
-38.5818	455.815	17.5994
-38.5756	458.507	17.6677
-38.5699	457.09	17.7361
-38.5644	459.091	17.8044
-38.55957	458.8197	17.8728
-38.554	454.297	17.9412
-38.5484	452.05	18.0095
-38.5422	451.841	18.0779
-38.5363	447.653	18.14624
-38.5315	447.859	18.2146
-38.5253	452.885	18.283
-38.5194	455.529	18.3513
-38.5137	455.523	18.4197
-38.5074	457.735	18.488
-38.50206	457.092	18.5564
-38.4963	455.855	18.6248
-38.491	453.741	18.6931
-38.48484	453.716	18.7615
-38.4786	447.36	18.8298
-38.474	445.8909	18.8982
-38.4683	452.02	18.9666
-38.4627	454.247	19.0349
-38.4569	452.402	19.1033
[...]
-37.7351	447.646	27.7654
-37.73003	445.8642	27.824
-37.7245	449.928	27.8826
-37.7203	449.994	27.9412
-37.7143	451.46	27.9998
-37.7105	449.852	28.05835
-37.7054	454.16	28.1169
-37.7003	451.568	28.1755
-37.6961	451.795	28.2341
-37.6916	452.4761	28.2927
-37.6866	448.538	28.3513
-37.6817	450.0032	28.4099
-37.677	447.476	28.4685
-37.6716	446.214	28.5271
-37.6666	444.133	28.5857
-37.6617	444.429	28.6443
-37.6564	444.917	28.7029
-37.653	443.197	28.7615
-37.6458	447.408	28.8201
-37.6424	446.541	28.8787
-37.6384	449.05	28.9373
-37.6327	446.868	28.99585
-37.6265	453.408	29.0544
-37.62159	447.086	29.113
-37.6173	451.111	29.1716
-37.6137	447.703	29.2302
-37.6079	447.611	29.2888
-37.6031	445.271	29.3474
-37.5983	445.503	29.406
-37.5936	441.63	29.4646
-37.5884	442.161	29.5232
-37.58297	444.99	29.5818
-37.5776	444.102	29.6404
-37.5733	447.336	29.699
-37.5682	447.828	29.7576
-37.5634	449.065	29.8162
-37.5598	448.829	29.8748
-37.5538	451.613	29.93335
-37.549	451.351	29.9919
-37.5449	449.64	30.0505
-37.5403	451.3862	30.1091
-37.5341	448.756	30.1677
-37.5289	449.15	30.2263
-37.5248	445.854	30.2849
-37.5203	446.422	30.3435
-37.5149	443.896	30.4021
-37.5107	443.5788	30.4607
-37.5046	443.315	30.5193
-37.5008	440.774	30.5779
-37.4949	443.473	30.6365
-37.49036	442.5675	30.6951
-37.4855	448.021	30.7537
-37.4797	444.894	30.8123
-37.4759	450.634	30.87085
-37.4714	447.1864	30.9294
-37.4662	451.625	30.988
-37.4613	446.632	31.0466
-37.4565	449.313	31.1052
-37.452	442.752	31.1638
-37.44659	445.287	31.2224
-37.4419	442.828	31.281
-37.4367	440.668	31.3396
-37.4328	443.052	31.3982
-37.4269	443.339	31.4568
-37.4232	443.438	31.5154
-37.417	443.149	31.574
-37.412	444.573	31.6326
-37.40794	444.856	31.6912
-37.4031	447.559	31.7498
-37.3984	449.619	31.80835
-37.3933	447.442	31.8669
-37.3885	448.789	31.9255
-37.38298	446.726	31.9841
-37.379	447.196	32.0427
-37.3734	442.912	32.1013
-37.3693	445.186	32.1599
-37.3638	441.368	32.2185
-37.3593	439.395	32.2771
-37.3535	441.005	32.3357
-37.3486	438.05	32.3943
-37.3445	439.887	32.4529
-37.3406	440.024	32.5115
-37.3344	443.678	32.5701
-37.3288	439.912	32.6287
-37.3242	444.186	32.6873
-37.3199	441.56	32.74585
-37.3158	445.323	32.8044
-37.3101	443.027	32.863
-37.3041	443.947	32.9216
-37.2998	440.703	32.9802
-37.29575	441.957	33.0388
-37.29	439.471	33.0974
-37.2853	438.562	33.156
-37.2799	438.559	33.2146
-37.27552	438.393	33.2732
-37.2704	438.5564	33.3318
-37.26675	437.492	33.3904
-37.2602	441.14	33.449
-37.25684	438.905	33.5076
-37.2522	440.312	33.5662
-37.2467	441.4054	33.6248
-37.2418	443.544	33.68335
-37.2374	443.476	33.7419
-37.2323	442.605	33.8005
-37.22649	443.1225	33.8591
-37.2217	439.086	33.9177
-37.2178	442.128	33.9763
-37.2122	436.556	34.0349
-37.2075	437.009	34.0935
-37.2027	434.451	34.1521
-37.1985	435.057	34.2107
-37.193	433.372	34.2693
-37.1872	432.635	34.3279
-37.1836	435.427	34.3865
-37.1789	432.108	34.4451
-37.173	436.841	34.5037
-37.1671	434.2403	34.5623
-37.163	440.26	34.62085
-37.159	435.9	34.6794
-37.1531	439.4176	34.738
-37.1493	434.22	34.7966
-37.1441	434.076	34.8552
-37.1388	432.753	34.9138
-37.13443	430.419	34.9724
-37.1285	428.053	35.031
-37.1241	425.946	35.0896
-37.1199	422.819	35.1482
-37.1147	420.508	35.2068
-37.1101	412.147	35.2654
-37.1038	-45.2379	35.324
-37.0998	-42.35	35.3826
-37.0951	-41.5916	35.4412
-37.0901	-41.0181	35.4998
-37.0852	-39.1522	35.55835
-37.08009	-39.7073	35.6169
-37.074	-37.7445	35.6755
-37.0693	-42.8009	35.7341
-37.0659	-39.9735	35.7927
-37.0598	-43.9485	35.8513
-37.0557	-42.7509	35.9099
-37.0506	-46.3592	35.9685
-37.0466	-45.4853	36.0271
-37.04002	-46.51	36.0857
-37.0359	-46.5323	36.1443
-37.0322	-43.9299	36.2029
-37.0299	-42.6901	36.2224