Folder: Stress_Strain_Analysis_Tools/data/processed_data_files/tensile (part 36)

File: 0.254_solid_dimension_typeiv_090_r(2).dat
MTS793|BTW|ENU|1|2|.|/|:|1|0|0|A

Data Header:			0.254_solid_dimension_typeiv_090_r0			Time:	20.0183	s	4/14/2019 1:39:32 AM
Data Acquisition:	Timed
Station Name:	ft40.cfg
Test File Name:	monotonic_0.2540_typeiv_solid_090_dimension.tst
Displacement	Force	Running Time
mm	N	s
-40.0409	-261.743	0.0222168
-40.0411	-262.972	0.0905762
-40.0355	-262.982	0.158936
-40.0296	-256.743	0.227295
-40.0237	-252.665	0.2956543
-40.0186	-252.053	0.364014
-40.013	-248.588	0.432373
-40.008	-247.73	0.500732
-40.002	-246.426	0.5690918
-39.9955	-240.986	0.637451
-39.9902	-236.375	0.705811
-39.9844	-232.994	0.77417
-39.9799	-231.935	0.8425293
-39.9738	-223.025	0.910889
-39.9669	-218.538	0.979248
-39.96069	-218.682	1.04761
-39.9562	-214.163	1.11597
-39.9505	-211.979	1.18433
-39.9449	-213.491	1.25269
-39.9385	-208.766	1.32104
-39.933	-202.493	1.3894
-39.9278	-200.477	1.45776
-39.9226	-199.437	1.526123
-39.9167	-191.705	1.59448
-39.9117	-184.969	1.66284
-39.904	-185.645	1.7312
-39.8985	-181.893	1.79956
-39.8934	-177.915	1.86792
-39.8876	-177.5795	1.93628
-39.8832	-173.526	2.00464
-39.8761	-169.766	2.072998
-39.8711	-167.774	2.14136
-39.86499	-165.672	2.20972
-39.8602	-157.281	2.27808
-39.8538	-151.578	2.34644
-39.8483	-150.2695	2.41479
-39.84148	-145.656	2.48315
-39.8365	-141.525	2.55151
-39.8313	-142.893	2.619873
-39.8246	-140.619	2.68823
-39.819	-135.967	2.75659
-39.8133	-134.529	2.82495
-39.80872	-131.944	2.89331
-39.8027	-123.786	2.96167
-39.7972	-116.912	3.03003
-39.7906	-116.473	3.09839
-39.7848	-112.307	3.166748
-39.7794	-106.592	3.23511
-39.7736	-106.914	3.30347
-39.7682	-104.188	3.37183
-39.7634	-101.108	3.44019
-39.7573	-98.7702	3.50854
-39.752	-98.5117	3.5769
-39.7449	-89.8229	3.64526
-39.7395	-84.05307	3.713623
-39.7339	-81.8508	3.78198
-39.7286	-74.4089	3.85034
-39.7227	-70.8179	3.9187
-39.7169	-70.0063	3.98706
-39.7104	-67.2313	4.05542
-39.7048	-65.0817	4.12378
-39.7	-65.3489	4.19214
-39.6937	-63.0824	4.260498
-39.6881	-56.231	4.32886
-39.6831	-49.8993	4.39722
-39.677	-46.4247	4.46558
-39.6715	-40.9523	4.53394
-39.6655	-37.8885	4.60229
-39.6597	-32.2115	4.67065
-39.6537	-30.8667	4.73901
-39.6484	-29.6128	4.807373
-39.6427	-30.4964	4.87573
-39.6378	-28.1106	4.94409
-39.6314	-22.16584	5.01245
-39.6262	-16.9992	5.08081
-39.6201	-12.672	5.14917
-39.6142	-8.20029	5.21753
-39.6094	-3.76862	5.28589
-39.6017	2.33384	5.354248
-39.5969	4.20665	5.42261
-39.59201	5.10886	5.49097
-39.58691	5.06586	5.55933
-39.5802	7.21347	5.62769
-39.575	14.4147	5.69604
-39.56934	15.2821	5.7644
-39.5628	20.978	5.83276
-39.558	26.4464	5.901123
-39.5511	30.3615	5.96948
-39.5472	36.0861	6.03784
-39.5409	41.4728	6.1062
-39.5362	41.6765	6.17456
-39.5287	40.17643	6.24292
-39.5232	42.9208	6.31128
-39.5178	49.6211	6.37964
-39.5112	48.6621	6.447998
-39.506	53.0675	6.51636
-39.5001	61.3071	6.58472
-39.4957	63.8814	6.65308
-39.4888	69.0661	6.72144
-39.4839	76.7782	6.78979
-39.4784	76.8261	6.85815
-39.4727	74.9163	6.92651
-39.4664	77.4643	6.994873
-39.4609	85.3661	7.06323
-39.4554	85.805	7.13159
-39.4494	87.4865	7.19995
-39.4431	94.9487	7.26831
-39.4373	98.1885	7.33667
-39.4325	105.141	7.40503
-39.4274	110.291	7.47339
-39.4196	112.025	7.541748
-39.41375	110.888	7.61011
-39.4102	114.41	7.67847
-39.40377	120.026	7.74683
-39.399	120.083	7.81519
-39.39175	123.013	7.88354
-39.3865	127.476	7.9519
-39.3813	132.723	8.02026
-39.3758	135.674	8.088623
-39.3697	143.326	8.15698
-39.3645	146.74	8.22534
-39.3586	145.507	8.2937
-39.3532	148.214	8.36206
-39.3479	155.324	8.43042
-39.341	155.305	8.49878
-39.335	154.636	8.56714
-39.3281	160.005	8.635498
-39.3247	163.601	8.70386
-39.31789	169.377	8.77222
-39.3141	174.411	8.84058
-39.3069	178.59	8.90894
-39.301	180.895	8.97729
-39.2949	184.039	9.04565
-39.291	189.251	9.11401
-39.2835	188.018	9.182373
-39.2781	188.117	9.25073
-39.273	192.8783	9.31909
-39.2668	194.811	9.38745
-39.2624	201.261	9.45581
-39.2556	209.298	9.52417
-39.2502	210.631	9.59253
-39.2438	212.886	9.66089
-39.2388	217.15	9.729248
-39.2328	221.8161	9.79761
-39.2275	220.191	9.86597
-39.221	224.748	9.93433
-39.2146	226.381	10.0027
-39.211	227.219	10.071
-39.2041	233.456	10.1394
-39.1987	238.551	10.2078
-39.1921	241.14	10.2761
-39.1874	244.418	10.3445
-39.1811	250.768	10.4128
-39.1765	255.234	10.4812
-39.1698	254.905	10.5496
-39.1632	258.632	10.61792
-39.1584	259.753	10.6863
-39.1527	259.836	10.7546
-39.1471	265.466	10.823
-39.1413	268.116	10.8914
-39.1363	272.21	10.9597
-39.13187	276.1225	11.0281
-39.1249	281.33	11.0964
-39.119	287.26	11.1648
-39.1133	288.04	11.2332
-39.1073	290.14	11.3015
-39.1007	291.343	11.3699
-39.0958	291.07	11.4382
-39.0905	295.0437	11.5066
-39.0851	298.981	11.575
-39.0786	299.648	11.6433
-39.07386	303.493	11.71167
-39.0676	311.444	11.78
-39.0619	316.736	11.8484
-39.05624	317.643	11.9167
-39.0505	321.923	11.9851
-39.0436	324.0499	12.0535
-39.0392	321.047	12.1218
-39.0327	325.114	12.1902
-39.0285	328.5	12.2585
-39.0218	327.807	12.3269
-39.0187	330.827	12.3953
-39.0103	339.26	12.4636
-39.005	344.822	12.532
-39.0001	346.913	12.6003
-38.9939	350.15	12.6687
-38.9878	351.666	12.7371
-38.9817	353.123	12.80542
-38.9771	353.987	12.8738
-38.97031	356.506	12.9421
-38.9659	355.622	13.0105
-38.9594	357.296	13.0789
-38.9532	366.398	13.1472
-38.9487	370.979	13.2156
-38.9429	372.049	13.2839
-38.9371	376.449	13.3523
-38.9312	379.793	13.4207
-38.9257	378.694	13.489
-38.9198	380.164	13.5574
-38.9139	381.227	13.6257
-38.9083	380.977	13.6941
-38.9032	378.691	13.7625
-38.8967	387.893	13.8308
-38.89143	393.667	13.89917
-38.8855	395.222	13.9675
-38.88023	399.4534	14.0359
-38.8744	403.751	14.1042
-38.8685	403.614	14.1726
-38.8614	403.157	14.241
-38.8568	403.894	14.3093
-38.8521	403.0415	14.3777
-38.8454	404.18	14.446
-38.8401	408.512	14.5144
-38.8339	412.908	14.5828
-38.8285	416.707	14.6511
-38.8225	419.4386	14.7195
-38.8176	423.255	14.7878
-38.8108	425.21	14.8562
-38.806	426.183	14.9246
-38.7999	425.366	14.99292
-38.7946	422.6962	15.0613
-38.7896	421.324	15.1296
-38.7828	426.853	15.198
-38.7766	429.553	15.2664
-38.772	432.045	15.3347
-38.7657	436.618	15.4031
-38.7612	438.22	15.4714
-38.75399	440.82	15.5398
-38.7487	441.859	15.6082
-38.743	442.14	15.6765
-38.7376	437.238	15.7449
-38.7311	435.91	15.8132
-38.7256	441.042	15.8816
-38.7198	442.682	15.95
-38.714	441.724	16.0183
-38.7086	447.626	16.08667
-38.7033	449.213	16.155
-38.6974	450.289	16.2234
-38.6913	454.474	16.2917
-38.6853	452.344	16.3601
-38.6806	448.397	16.4285
-38.6758	446.973	16.4968
-38.6699	450.891	16.5652
-38.663	446.377	16.6335
-38.6577	448.0361	16.7019
-38.6521	452.029	16.7703
-38.6471	454.978	16.8386
-38.6409	456.064	16.907
-38.6351	459.011	16.9753
-38.6293	458.9126	17.0437
-38.6229	452.141	17.1121
-38.6192	451.802	17.18042
-38.6104	454.44	17.2488
-38.6065	453.399	17.3171
-38.6021	450.23	17.3855
-38.595	453.855	17.4539
-38.5895	455.725	17.5222
-38.583	456.622	17.5906
-38.5777	460.546	17.6589
-38.5727	462.0647	17.7273
-38.5659	455.36	17.7957
-38.5602	453.3381	17.864
-38.5547	456.946	17.9324
-38.5498	455.098	18.0007
-38.54438	449.818	18.0691
-38.5392	451.865	18.1375
-38.5325	452.094	18.2058
-38.5267	453.046	18.27417
-38.5203	456.782	18.3425
-38.5151	457.117	18.4109
-38.5086	454.4935	18.4792
-38.50349	451.185	18.5476
-38.4986	455.843	18.616
-38.4937	451.094	18.6843
-38.4863	446.391	18.7527
-38.4806	449.332	18.821
-38.47509	448.011	18.8894
-38.4703	449.8815	18.9578
-38.4631	451.237	19.0261
[...]
-38.0571	437.975	23.9187
-38.05476	426.595	23.948
-38.0505	440.389	23.9773
-38.05061	433.231	24.0066
-38.0464	439.3461	24.0359
-38.0433	429.035	24.0652
-38.04187	437.3	24.0945
-38.0395	433.682	24.1238
-38.0364	436.798	24.1531
-38.0328	430.611	24.1824
-38.0302	436.2406	24.21167
-38.02932	434.18	24.241
-38.027	431.971	24.2703
-38.02383	432.825	24.2996
-38.021	433.312	24.3289
-38.0198	438.583	24.3582
-38.0171	430.327	24.3875
-38.0144	437.794	24.4167
-38.0124	430.651	24.446
-38.0107	436.658	24.4753
-38.0067	431.332	24.5046
-38.0053	437.184	24.5339
-38.0025	430.4549	24.5632
-38	435.519	24.5925
-37.9979	431.832	24.6218
-37.9957	435.003	24.6511
-37.9929	432.338	24.68042
-37.9913	434.4744	24.7097
-37.9882	437.339	24.739
-37.9856	433.365	24.7683
-37.983	434.605	24.7976
-37.9812	430.473	24.8269
-37.9785	435.908	24.8562
-37.9757	431.313	24.8855
-37.9724	434.026	24.9148
-37.9709	431.326	24.9441
-37.9687	437.024	24.9734
-37.965	429.063	25.0027
-37.9634	432.657	25.032
-37.9602	432.617	25.0613
-37.9568	434.559	25.0906
-37.9561	431.339	25.1199
-37.9528	429.215	25.14917
-37.9514	434.437	25.1785
-37.9492	430.666	25.2078
-37.9466	432.5755	25.2371
-37.9438	426.218	25.2664
-37.9419	435.584	25.2957
-37.9381	427.264	25.325
-37.936	433.275	25.3542
-37.93396	425.598	25.3835
-37.9322	435.238	25.4128
-37.9289	426.831	25.4421
-37.9272	433.434	25.4714
-37.9242	429.721	25.5007
-37.92247	431.07	25.53
-37.9193	428.488	25.5593
-37.9166	431.457	25.5886
-37.9145	431.798	25.61792
-37.9115	427.849	25.6472
-37.9097	431.9093	25.6765
-37.9066	427.183	25.7058
-37.9047	431.685	25.7351
-37.90242	424.8468	25.7644
-37.8997	433.088	25.7937
-37.89782	427.778	25.823
-37.89463	433.889	25.8523
-37.8931	420.869	25.8816
-37.89	431.582	25.9109
-37.887	425.95	25.9402
-37.8858	429.351	25.9695
-37.8823	422.054	25.9988
-37.8813	431.006	26.0281
-37.8774	425.516	26.0574
-37.8765	422.989	26.08667
-37.8727	420.528	26.116
-37.8708	423.441	26.1453
-37.86816	422.276	26.1746
-37.8646	413.15	26.2039
-37.8632	403.667	26.2332
-37.8589	-23.3378	26.2625
-37.8576	-41.998	26.2917
-37.8543	-44.2221	26.321
-37.85376	-38.6485	26.3503
-37.8504	-42.6143	26.3796
-37.848	-40.17942	26.4089
-37.8457	-46.0002	26.4382
-37.8433	-41.4192	26.4675
-37.8405	-44.4907	26.4968
-37.8381	-41.74	26.5261
-37.8358	-40.282	26.55542
-37.8335	-41.704	26.5847
-37.8312	-43.2208	26.614
-37.82901	-44.8171	26.6433
-37.8268	-39.4571	26.6726
-37.8236	-42.8515	26.7019
-37.8213	-41.1104	26.7312
-37.8194	-44.4427	26.7605
-37.8164	-38.48613	26.7898
-37.8151	-45.3055	26.8191
-37.8114	-42.525	26.8484
-37.80854	-43.4571	26.8777
-37.80788	-38.342	26.907
-37.8043	-41.2553	26.9363
-37.80238	-43.5066	26.9656
-37.79911	-42.556	26.9949
-37.7981	-41.5681	27.02417
-37.7952	-41.3042	27.0535
-37.7924	-45.4515	27.0828
-37.79	-37.81823	27.1121
-37.7876	-44.9775	27.1414
-37.7855	-39.8141	27.1707
-37.7821	-47.9312	27.2
-37.7791	-36.94783	27.2292
-37.7763	-46.693	27.2585
-37.7757	-39.9272	27.2878
-37.7726	-45.7314	27.3171
-37.7702	-38.41927	27.3464
-37.76675	-44.492	27.3757
-37.7659	-39.9328	27.405
-37.7634	-42.3397	27.4343
-37.7602	-40.67812	27.4636
-37.7581	-40.9177	27.49292
-37.7555	-41.6549	27.5222
-37.7538	-38.3135	27.5515
-37.751	-46.9526	27.5808
-37.7492	-37.8162	27.6101
-37.7463	-41.4702	27.6394
-37.7436	-35.7429	27.6687
-37.7413	-46.2557	27.698
-37.738	-37.4125	27.7273
-37.7356	-44.5892	27.7566
-37.7328	-37.2458	27.7859
-37.7312	-46.2547	27.8152
-37.7288	-38.1784	27.8445
-37.7264	-41.3956	27.8738
-37.7235	-39.7433	27.9031
-37.72139	-44.1559	27.9324
-37.7195	-40.5347	27.96167
-37.7179	-39.6821	27.991
-37.7143	-42.4132	28.0203
-37.7128	-43.2051	28.0496
-37.7092	-43.0729	28.0789
-37.7081	-39.9827	28.0984

File: 0.254_solid_dimension_typeiv_090_r(3).dat
MTS793|BTW|ENU|1|2|.|/|:|1|0|0|A

Data Header:			0.254_solid_dimension_typeiv_090_r0			Time:	20.0173	s	4/14/2019 1:41:41 AM
Data Acquisition:	Timed
Station Name:	ft40.cfg
Test File Name:	monotonic_0.2540_typeiv_solid_090_dimension.tst
Displacement	Force	Running Time
mm	N	s
-40.0416	-126.1864	0.0224609
-40.04	-120.424	0.0908203
-40.0352	-118.3804	0.15918
-40.02895	-114.26	0.227539
-40.0243	-105.569	0.295898
-40.0175	-102.785	0.364258
-40.0113	-100.687	0.432617
-40.0051	-97.3206	0.500977
-40.0013	-95.49044	0.569336
-39.9943	-97.9676	0.637695
-39.9894	-92.2273	0.706055
-39.9839	-86.6757	0.774414
-39.9778	-81.34803	0.842773
-39.9723	-79.3288	0.911133
-39.9655	-70.902	0.979492
-39.9604	-67.2545	1.04785
-39.9556	-63.91164	1.11621
-39.9495	-59.4692	1.18457
-39.9439	-58.223	1.25293
-39.9376	-59.6317	1.32129
-39.9326	-55.461	1.38965
-39.92598	-50.9048	1.45801
-39.9219	-49.9696	1.52637
-39.9155	-42.9053	1.59473
-39.9094	-38.6668	1.66309
-39.9038	-32.4891	1.73145
-39.8978	-28.3837	1.7998
-39.8922	-24.1238	1.86816
-39.8866	-22.8632	1.93652
-39.881	-22.4142	2.00488
-39.8758	-16.8712	2.07324
-39.8693	-16.6755	2.1416
-39.8628	-15.0664	2.20996
-39.8595	-10.8101	2.27832
-39.8524	-4.27724	2.34668
-39.8465	2.64455	2.41504
-39.84045	7.06498	2.4834
-39.8358	12.3865	2.55176
-39.8299	12.48	2.62012
-39.8248	13.9913	2.68848
-39.819	18.6053	2.75684
-39.8126	19.65818	2.8252
-39.8065	21.9532	2.89355
-39.801	24.7213	2.96191
-39.7959	27.2588	3.03027
-39.7906	37.90995	3.09863
-39.7845	42.05547	3.16699
-39.778	45.5604	3.23535
-39.7728	46.2357	3.30371
-39.7676	51.3214	3.37207
-39.7625	55.3585	3.44043
-39.7558	55.2238	3.50879
-39.7504	57.9117	3.57715
-39.7441	59.4594	3.64551
-39.7389	61.6962	3.71387
-39.7338	69.7368	3.78223
-39.728	75.8795	3.85059
-39.7224	78.7926	3.91895
-39.7163	81.2263	3.9873
-39.712	87.1441	4.05566
-39.7035	90.15863	4.12402
-39.6989	91.2195	4.19238
-39.6937	94.458	4.26074
-39.688	96.6073	4.3291
-39.6819	96.9206	4.39746
-39.6763	103.239	4.46582
-39.6701	110.516	4.53418
-39.6651	112.441	4.60254
-39.6593	115.333	4.6709
-39.6532	123.906	4.73926
-39.6477	126.4976	4.80762
-39.64143	126.35	4.87598
-39.6365	130.948	4.94434
-39.63105	133.09	5.0127
-39.6249	134.5006	5.08105
-39.62019	138.686	5.14941
-39.6129	143.012	5.21777
-39.6076	144.566	5.28613
-39.6025	149.897	5.35449
-39.59483	158.458	5.42285
-39.5913	159.921	5.49121
-39.5854	161.871	5.55957
-39.579	165.33	5.62793
-39.57312	166.952	5.69629
-39.5672	168.295	5.76465
-39.5624	172.055	5.83301
-39.5563	177.311	5.90137
-39.55051	174.455	5.96973
-39.5451	182.316	6.03809
-39.5403	189.978	6.10645
-39.5352	194.821	6.1748
-39.5274	196.491	6.24316
-39.5222	202.433	6.31152
-39.5165	200.109	6.37988
-39.5108	202.591	6.44824
-39.5058	207.138	6.5166
-39.5001	208.809	6.58496
-39.4929	206.864	6.65332
-39.4878	215.671	6.72168
-39.4831	222.9817	6.79004
-39.47681	224.097	6.8584
-39.4715	228.725	6.92676
-39.4664	234.046	6.99512
-39.46	235.131	7.06348
-39.4542	237.672	7.13184
-39.449	238.963	7.2002
-39.4433	240.735	7.26855
-39.4369	239.153	7.33691
-39.4309	246.616	7.40527
-39.4262	254.6635	7.47363
-39.4207	255.348	7.54199
-39.4143	262.159	7.61035
-39.4098	266.659	7.67871
-39.4026	268.552	7.74707
-39.3972	272.362	7.81543
-39.3911	273.278	7.88379
-39.386	272.98	7.95215
-39.3786	272.914	8.02051
-39.3752	279.504	8.08887
-39.3695	284.822	8.15723
-39.3635	288.151	8.22559
-39.357	294.019	8.29395
-39.3516	299.025	8.3623
-39.346	301.896	8.43066
-39.3389	302.79	8.49902
-39.3346	306.38	8.56738
-39.3287	303.128	8.63574
-39.32259	306.065	8.7041
-39.3174	311.977	8.77246
-39.3118	313.631	8.84082
-39.3065	316.8132	8.90918
-39.3006	321.539	8.97754
-39.2954	327.463	9.0459
-39.2891	333.343	9.11426
-39.2842	335.375	9.18262
-39.278	336.181	9.25098
-39.2721	334.523	9.31934
-39.26635	335.5105	9.3877
-39.26046	341.789	9.45605
-39.255	342.3735	9.52441
-39.2493	347.651	9.59277
-39.2434	351.444	9.66113
-39.23819	354.028	9.72949
-39.2309	362.454	9.79785
-39.227	363.591	9.86621
-39.2207	364.318	9.93457
-39.2157	364.461	10.00293
-39.2097	368.152	10.0713
-39.203	369.1723	10.1396
-39.1985	369.638	10.208
-39.1924	372.549	10.2764
-39.1853	377.161	10.3447
-39.18084	381.499	10.4131
-39.1752	388.794	10.4814
-39.1693	391.943	10.5498
-39.1643	391.365	10.6182
-39.1596	392.905	10.6865
-39.1532	396.676	10.7549
-39.146	396.759	10.8232
-39.1413	396.562	10.8916
-39.1353	399.883	10.96
-39.1304	402.664	11.02832
-39.1245	406.715	11.09668
-39.118	412.889	11.165
-39.1133	415.041	11.2334
-39.1064	414.44	11.3018
-39.1013	416.786	11.3701
-39.0957	423.874	11.4385
-39.0901	419.7356	11.5068
-39.0842	421.212	11.5752
-39.0777	422.036	11.6436
-39.0715	422.773	11.7119
-39.06749	427.601	11.7803
-39.0612	433.01	11.8486
-39.0558	434.839	11.917
-39.0498	434.987	11.9854
-39.0436	440.11	12.0537
-39.0392	442.841	12.12207
-39.032	440.1709	12.19043
-39.0262	440.698	12.2588
-39.0224	441.854	12.3271
-39.0147	440.353	12.3955
-39.0106	443.337	12.4639
-39.0034	447.789	12.5322
-38.9988	449.17	12.6006
-38.9928	450.15	12.6689
-38.9865	455.894	12.7373
-38.9826	457.343	12.8057
-38.97588	454.902	12.874
-38.9687	456.5976	12.9424
-38.9632	455.279	13.0107
-38.958	454.171	13.0791
-38.9528	455.881	13.1475
-38.9455	456.561	13.21582
-38.9428	455.367	13.28418
-38.9356	458.783	13.3525
-38.9305	464.177	13.4209
-38.9247	464.026	13.4893
-38.9184	464.414	13.5576
-38.9128	463.721	13.626
-38.9079	461.103	13.6943
-38.9016	459.76	13.7627
-38.89587	458.997	13.8311
-38.8899	461.567	13.8994
-38.8855	457.303	13.9678
-38.8793	459.616	14.0361
-38.8733	464.941	14.1045
-38.86652	467.683	14.1729
-38.862	464.8844	14.2412
-38.8569	464.219	14.30957
-38.8511	464.9212	14.37793
-38.8445	461.215	14.4463
-38.8398	461.818	14.5146
-38.8331	459.845	14.583
-38.82795	458.082	14.6514
-38.82143	457.8934	14.7197
-38.8172	463.073	14.7881
-38.8105	462.469	14.8564
-38.8043	463.824	14.9248
-38.7984	465.327	14.9932
-38.7928	461.105	15.0615
-38.78812	461.68	15.1299
-38.7815	458.833	15.1982
-38.7761	455.85	15.2666
-38.771	452.293	15.335
-38.765	455.192	15.40332
-38.7592	456.512	15.47168
-38.7534	456.914	15.54
-38.7477	458.324	15.6084
-38.7426	459.676	15.6768
-38.7361	458.315	15.7451
-38.7304	456.915	15.8135
-38.7245	455.74	15.8818
-38.7198	450.458	15.9502
-38.7145	447.685	16.0186
-38.7085	450.793	16.0869
-38.7019	450.9837	16.1553
-38.6963	452.254	16.2236
-38.6903	453.086	16.292
-38.6848	453.822	16.3604
-38.6797	455.97	16.4287
-38.6727	455.096	16.49707
-38.6678	452.363	16.56543
-38.66124	449.903	16.6338
-38.6566	445.376	16.7021
-38.6518	448.201	16.7705
-38.6453	446.608	16.8389
-38.63921	446.656	16.9072
-38.6344	450.604	16.9756
-38.6275	449.207	17.0439
-38.6236	453.164	17.1123
-38.6167	454.191	17.1807
-38.6111	449.536	17.249
-38.6052	447.946	17.3174
-38.5986	447.331	17.3857
-38.5933	446.193	17.4541
-38.5884	442.814	17.5225
-38.5829	443.425	17.59082
-38.5781	445.211	17.65918
-38.5708	446.711	17.7275
-38.5653	451.013	17.7959
-38.5599	451.665	17.8643
-38.5545	446.851	17.9326
-38.5484	444.964	18.001
-38.543	447.807	18.0693
-38.5375	445.437	18.1377
-38.5304	441.517	18.2061
-38.5273	443.7858	18.2744
-38.51825	442.536	18.3428
-38.515	444.49	18.4111
-38.50811	448.012	18.4795
-38.5027	450.972	18.5479
-38.4988	446.0946	18.6162
-38.4906	445.013	18.68457
-38.4853	447.625	18.75293
-38.4793	443.132	18.8213
-38.4741	441.307	18.8896
-38.4683	441.82	18.958
-38.4631	441.35	19.0264
-38.4575	440.275	19.0947
-38.4519	444.845	19.1631
[...]
-37.9375	434.415	25.335
-37.93441	439.549	25.374
-37.9309	438.5636	25.4131
-37.928	435.152	25.4521
-37.9241	440.662	25.4912
-37.9221	434.195	25.5303
-37.918	438.036	25.5693
-37.9144	438.82	25.6084
-37.9106	432.619	25.6475
-37.9083	439.694	25.6865
-37.9051	435.95	25.7256
-37.9025	433.156	25.7646
-37.8983	439.616	25.8037
-37.895	434.378	25.8428
-37.8917	433.192	25.8818
-37.8885	437.245	25.9209
-37.8854	434.624	25.96
-37.8816	435.974	25.999
-37.8794	436.209	26.0381
-37.8757	432.939	26.0771
-37.8725	438.042	26.1162
-37.8694	432.522	26.1553
-37.8654	437.279	26.1943
-37.8628	435.486	26.2334
-37.8587	432.4339	26.2725
-37.8562	439.317	26.3115
-37.8523	436.557	26.3506
-37.8498	433.2554	26.3896
-37.8454	439.8	26.4287
-37.8428	434.205	26.4678
-37.8409	434.997	26.5068
-37.8363	438.822	26.5459
-37.8332	433.332	26.585
-37.8301	436.5184	26.624
-37.8272	433.7063	26.6631
-37.8235	432.527	26.7021
-37.8208	436.498	26.7412
-37.8165	430.219	26.7803
-37.8145	433.914	26.8193
-37.8107	434.045	26.8584
-37.8076	427.48	26.8975
-37.8036	434.209	26.9365
-37.8014	431.989	26.9756
-37.7979	425.675	27.0146
-37.79483	436.129	27.0537
-37.7903	429.067	27.0928
-37.7877	427.639	27.1318
-37.7857	430.9808	27.1709
-37.781	425.109	27.21
-37.7762	428.7966	27.249
-37.7746	426.048	27.2881
-37.7709	421.562	27.3271
-37.7676	416.9277	27.3662
-37.7623	-41.6064	27.4053
-37.7598	-43.00869	27.4443
-37.7581	-37.8011	27.4834
-37.7552	-45.4083	27.5225
-37.7513	-36.4038	27.5615
-37.74754	-40.571	27.6006
-37.7448	-42.0806	27.6396
-37.7419	-37.4087	27.6787
-37.7377	-43.2372	27.7178
-37.7358	-39.9377	27.7568
-37.7317	-38.5905	27.7959
-37.7289	-43.5059	27.835
-37.7258	-37.9341	27.874
-37.7224	-40.1223	27.9131
-37.7191	-42.8645	27.9521
-37.7154	-37.4242	27.9912
-37.7133	-43.9372	28.0303
-37.7093	-42.1959	28.0693
-37.7053	-38.9163	28.1084
-37.7034	-47.7054	28.1475
-37.6992	-39.7774	28.1865
-37.6953	-41.8177	28.2256
-37.6937	-45.30352	28.2646
-37.689	-40.27113	28.3037
-37.6863	-42.4215	28.3428
-37.6836	-44.80658	28.3818
-37.68	-39.7581	28.4209
-37.67643	-44.4945	28.46
-37.6741	-39.8369	28.499
-37.669	-42.42215	28.5381
-37.6664	-43.1354	28.5771
-37.6646	-38.7369	28.6162
-37.661	-44.2736	28.6553
-37.6568	-38.6178	28.6943
-37.6535	-40.41362	28.7334
-37.6512	-42.7141	28.7725
-37.6483	-38.11977	28.8115
-37.6436	-39.8232	28.8506
-37.6409	-42.829	28.8896
-37.6377	-36.923	28.9287
-37.635	-42.75	28.9678
-37.6309	-40.3997	29.0068
-37.6283	-37.0737	29.0459
-37.6252	-43.6566	29.085
-37.6218	-38.4173	29.124
-37.61805	-43.0005	29.1631
-37.6151	-41.24403	29.2021
-37.6117	-38.6448	29.2412
-37.60825	-44.7966	29.2803
-37.60561	-43.20607	29.3193
-37.6015	-39.1572	29.3584
-37.5985	-46.3674	29.3975
-37.5946	-39.46077	29.4365
-37.5909	-39.8719	29.4756
-37.5881	-46.0061	29.5146
-37.586	-38.4943	29.5537
-37.5824	-43.2525	29.5928
-37.5786	-41.677	29.6318
-37.5758	-38.1059	29.6709
-37.5719	-42.29826	29.71
-37.5691	-39.5005	29.749
-37.5662	-42.2514	29.7881
-37.5637	-41.92989	29.8271
-37.5596	-39.4467	29.8662
-37.556	-42.7418	29.9053
-37.5532	-41.2001	29.9443
-37.5495	-36.5358	29.9834
-37.546	-43.1922	30.0225
-37.5439	-36.7261	30.0615
-37.539	-39.33651	30.1006
-37.53738	-42.1279	30.1396
-37.534	-37.5462	30.1787
-37.5292	-41.0488	30.2178
-37.5274	-41.429	30.2568
-37.5247	-38.7744	30.2959
-37.5203	-42.352	30.335
-37.5183	-38.9435	30.374
-37.5147	-42.1933	30.4131
-37.5098	-43.2633	30.4521
-37.5073	-38.2121	30.4912
-37.5038	-46.233	30.5303
-37.50214	-41.0332	30.5693
-37.4973	-39.6243	30.6084
-37.4953	-47.2917	30.6475
-37.492	-40.4315	30.6865
-37.4885	-41.5791	30.7256
-37.4842	-45.6131	30.7646
-37.48225	-39.1993	30.8037
-37.4793	-41.9644	30.8428
-37.4768	-37.7382	30.8623