Folder: Stress_Strain_Analysis_Tools/data/processed_data_files/tensile (part 21)

File: 0.254_hd_uprint_typeiv_090_r(3).dat
MTS793|BTW|ENU|1|2|.|/|:|1|0|0|A

Data Header:			0.254_hd_uprint_typeiv_090_r0			Time:	20.0188	s	4/13/2019 11:00:47 PM
Data Acquisition:	Timed
Station Name:	ft40.cfg
Test File Name:	monotonic_0.2540_typeiv_solid_4545_uprint.tst
Displacement	Force	Running Time
mm	N	s
-40.0419	-204.232	0.0231934
-40.0387	-202.904	0.0915527
-40.0345	-200.671	0.159912
-40.0272	-199.156	0.228271
-40.023	-197.923	0.296631
-40.01749	-198.066	0.36499
-40.011	-193.069	0.43335
-40.0048	-188.014	0.501709
-39.9997	-183.853	0.570068
-39.9941	-178.047	0.638428
-39.988	-172.104	0.706787
-39.983	-169.209	0.775146
-39.9774	-166.1833	0.843506
-39.9722	-165.2193	0.911865
-39.9649	-163.2438	0.980225
-39.961	-164.498	1.048584
-39.9549	-163.086	1.11694
-39.9494	-154.532	1.1853
-39.9429	-151.348	1.25366
-39.93779	-147.702	1.32202
-39.9327	-140.061	1.39038
-39.925	-135.582	1.45874
-39.9216	-133.01	1.5271
-39.9145	-129.284	1.595459
-39.9096	-127.997	1.66382
-39.9054	-132.02	1.73218
-39.8983	-130.076	1.80054
-39.8922	-122.2649	1.8689
-39.8858	-120.12	1.93726
-39.88068	-117.927	2.00562
-39.8745	-108.264	2.07397
-39.8693	-104.751	2.142334
-39.8639	-100.768	2.21069
-39.8571	-96.4489	2.27905
-39.8522	-92.8961	2.34741
-39.8464	-96.6116	2.41577
-39.8419	-96.2888	2.48413
-39.8355	-89.7421	2.55249
-39.8297	-86.847	2.62085
-39.8233	-84.1664	2.689209
-39.8177	-77.54882	2.75757
-39.8123	-72.2096	2.82593
-39.8071	-67.0383	2.89429
-39.8	-63.3836	2.96265
-39.7949	-61.3926	3.03101
-39.7882	-63.718	3.09937
-39.7841	-62.3342	3.16772
-39.7774	-56.3463	3.236084
-39.7728	-54.744	3.30444
-39.767	-51.6788	3.3728
-39.7611	-46.0336	3.44116
-39.7557	-39.6327	3.50952
-39.7498	-34.6288	3.57788
-39.7442	-33.0046	3.64624
-39.7384	-28.9059	3.7146
-39.7332	-30.5722	3.782959
-39.727	-28.9692	3.85132
-39.7218	-24.1812	3.91968
-39.7148	-22.6502	3.98804
-39.7089	-21.6432	4.0564
-39.7048	-16.1325	4.12476
-39.6994	-9.97671	4.19312
-39.6912	-6.200922	4.26147
-39.6878	-0.808487	4.329834
-39.6817	2.46557	4.39819
-39.6762	3.4058	4.46655
-39.6687	5.13979	4.53491
-39.6646	9.21641	4.60327
-39.6589	9.63999	4.67163
-39.6526	12.2221	4.73999
-39.6479	17.3926	4.80835
-39.6412	20.1141	4.876709
-39.636	26.6562	4.94507
-39.6301	31.2926	5.01343
-39.624	34.9273	5.08179
-39.6179	35.1028	5.15015
-39.6133	38.5666	5.21851
-39.6063	44.2557	5.28687
-39.6029	44.5622	5.35522
-39.5964	46.4972	5.423584
-39.5897	49.6232	5.49194
-39.5841	49.3317	5.5603
-39.5792	56.1408	5.62866
-39.5729	59.7607	5.69702
-39.5663	64.7697	5.76538
-39.5609	66.3879	5.83374
-39.55666	69.21637	5.9021
-39.5503	77.1604	5.970459
-39.5444	76.7798	6.03882
-39.539	77.5372	6.10718
-39.5328	84.0935	6.17554
-39.5277	83.0143	6.2439
-39.5217	86.252	6.31226
-39.5157	92.356	6.38062
-39.5105	96.4688	6.44897
-39.506	98.5013	6.517334
-39.4991	102.369	6.58569
-39.4934	110.402	6.65405
-39.4871	109.631	6.72241
-39.4824	109.441	6.79077
-39.4763	115.128	6.85913
-39.4704	113.505	6.92749
-39.4656	116.143	6.99585
-39.4601	122.584	7.064209
-39.4532	126.773	7.13257
-39.4471	126.964	7.20093
-39.4434	132.458	7.26929
-39.43668	141.078	7.33765
-39.4311	142.086	7.40601
-39.4251	142.83	7.47437
-39.4203	144.599	7.54272
-39.4134	147.148	7.611084
-39.40852	150.378	7.67944
-39.4027	152.8687	7.7478
-39.3979	155.837	7.81616
-39.3913	157.167	7.88452
-39.3856	162.884	7.95288
-39.37867	171.136	8.02124
-39.3736	171.635	8.0896
-39.368	173.258	8.157959
-39.3613	177.401	8.22632
-39.3566	176.926	8.29468
-39.3499	179.389	8.36304
-39.3455	181.246	8.4314
-39.3399	186.1734	8.49976
-39.3336	187.68	8.56812
-39.3289	191.654	8.63647
-39.3216	201.687	8.704834
-39.3174	204.046	8.77319
-39.3112	206.982	8.84155
-39.306	206.663	8.90991
-39.2995	208.702	8.97827
-39.2948	210.673	9.04663
-39.2879	211.093	9.11499
-39.283	214.172	9.18335
-39.2762	217.358	9.251709
-39.2717	220.605	9.32007
-39.2657	227.857	9.38843
-39.2603	231.932	9.45679
-39.2541	235.924	9.52515
-39.2475	238.187	9.59351
-39.2436	238.631	9.66187
-39.2359	241.065	9.73022
-39.2314	242.121	9.798584
-39.226	242.174	9.86694
-39.2202	244.397	9.9353
-39.2151	249.356	10.0037
-39.2083	256.799	10.072
-39.2032	260.779	10.1404
-39.1977	265.423	10.20874
-39.1909	267.844	10.2771
-39.18681	268.206	10.3455
-39.1787	272.148	10.4138
-39.175	273.104	10.4822
-39.1684	270.957	10.5505
-39.1633	271.179	10.6189
-39.1571	278.674	10.6873
-39.15197	282.9382	10.7556
-39.1453	286.9494	10.824
-39.1396	293.015	10.8923
-39.1347	297.955	10.9607
-39.1287	297.7908	11.0291
-39.1231	300.519	11.0974
-39.1166	301.259	11.1658
-39.1118	298.419	11.2341
-39.1063	298.975	11.30249
-39.1001	304.6	11.37085
-39.0935	309.235	11.4392
-39.0888	312.443	11.5076
-39.0828	317.033	11.5759
-39.0776	323.876	11.6443
-39.07222	324.038	11.7126
-39.0662	327.011	11.781
-39.05965	328.068	11.8494
-39.0546	327.467	11.9177
-39.0497	326.319	11.9861
-39.0445	331.139	12.0544
-39.03817	334.345	12.1228
-39.0323	336.067	12.1912
-39.0268	341.8754	12.2595
-39.0208	348.523	12.3279
-39.0148	350.215	12.39624
-39.0089	352.473	12.4646
-39.004	355.2373	12.533
-38.9987	353.08	12.6013
-38.9918	351.914	12.6697
-38.98764	355.364	12.738
-38.9806	359.532	12.8064
-38.9755	359.686	12.8748
-38.9683	362.8941	12.9431
-38.9643	369.758	13.0115
-38.95789	373.035	13.0798
-38.95229	375.368	13.1482
-38.9471	380.0452	13.2166
-38.9414	377.291	13.2849
-38.9345	376.077	13.3533
-38.9294	380.331	13.4216
-38.9242	380.887	13.48999
-38.9187	381.25	13.55835
-38.9133	385.849	13.6267
-38.9068	388.53	13.6951
-38.9012	392.654	13.7634
-38.8944	398.339	13.8318
-38.8891	399.937	13.9001
-38.8832	399.151	13.9685
-38.8788	398.276	14.0369
-38.8722	400.399	14.1052
-38.8664	401.503	14.1736
-38.8609	401.12	14.2419
-38.8555	403.521	14.3103
-38.84972	406.548	14.3787
-38.8434	409.772	14.447
-38.8389	414.335	14.5154
-38.8326	415.949	14.58374
-38.8275	414.228	14.6521
-38.8205	415.574	14.7205
-38.8153	416.857	14.7888
-38.8096	418.123	14.8572
-38.80455	416.403	14.9255
-38.7982	418.303	14.9939
-38.7926	418.217	15.0623
-38.7861	420.863	15.1306
-38.7816	426.026	15.199
-38.7756	427.968	15.2673
-38.7709	426.8053	15.3357
-38.7649	428.237	15.4041
-38.7587	428.659	15.4724
-38.7529	426.26	15.5408
-38.748	426.158	15.6091
-38.7411	427.098	15.67749
-38.7365	424.094	15.74585
-38.7298	427.861	15.8142
-38.7249	432.989	15.8826
-38.7183	433.311	15.9509
-38.7129	430.787	16.0193
-38.7082	433.045	16.0876
-38.7025	436.781	16.156
-38.6961	431.172	16.2244
-38.6895	430.572	16.2927
-38.6844	432.487	16.3611
-38.67915	427.292	16.4294
-38.6743	429.713	16.4978
-38.6683	432.44	16.5662
-38.6616	433.575	16.6345
-38.657	431.4216	16.7029
-38.6514	433.483	16.77124
-38.6446	437.6553	16.8396
-38.6387	434.878	16.908
-38.6331	431.476	16.9763
-38.62759	434.036	17.0447
-38.6215	429.761	17.113
-38.6164	428.717	17.1814
-38.6107	431.521	17.2498
-38.6048	431.559	17.3181
-38.60014	429.219	17.3865
-38.5935	431.279	17.4548
-38.5882	437.495	17.5232
-38.5822	433.699	17.5916
-38.5769	431.021	17.6599
-38.5705	430.975	17.7283
-38.5648	426.977	17.7966
-38.55793	425.507	17.86499
-38.5537	425.379	17.93335
-38.5484	428.03	18.0017
-38.5424	424.664	18.0701
-38.53616	427.159	18.1384
-38.5296	431.812	18.2068
-38.5254	430.249	18.2751
-38.5192	428.331	18.3435
-38.5127	428.812	18.4119
-38.5077	424.5065	18.4802
-38.503	423.159	18.5486
-38.4971	421.796	18.6169
-38.4919	420.661	18.6853
-38.4847	418.588	18.7537
-38.4798	422.201	18.822
-38.4737	425.565	18.8904
-38.4675	427.037	18.95874
-38.4614	426.684	19.0271
[...]
-37.8174	406.533	26.7615
-37.8128	407.129	26.8201
-37.8078	407.08	26.8787
-37.8031	401.9057	26.9373
-37.7984	403.101	26.99585
-37.7936	402.579	27.0544
-37.7883	403.004	27.113
-37.7849	401.556	27.1716
-37.7784	407.636	27.2302
-37.773	402.882	27.2888
-37.7685	410.047	27.3474
-37.7652	407.904	27.406
-37.75906	409.128	27.4646
-37.7546	407.523	27.5232
-37.7491	409.519	27.5818
-37.7435	407.479	27.6404
-37.739	406.572	27.699
-37.7343	406.816	27.7576
-37.7297	404.312	27.8162
-37.7253	403.543	27.8748
-37.72052	402.816	27.93335
-37.7147	404.559	27.9919
-37.7105	403.291	28.0505
-37.7059	405.5773	28.1091
-37.7005	406.459	28.1677
-37.6971	405.476	28.2263
-37.6903	408.823	28.2849
-37.6854	409.012	28.3435
-37.68158	409.8269	28.4021
-37.67474	408.686	28.4607
-37.6706	410.119	28.5193
-37.6666	405.673	28.5779
-37.6615	407.436	28.6365
-37.6582	404.323	28.6951
-37.6518	401.481	28.7537
-37.64904	401.214	28.8123
-37.6412	400.3562	28.87085
-37.6382	400.8541	28.9294
-37.6317	398.694	28.988
-37.6279	403.368	29.0466
-37.6218	401.2186	29.1052
-37.6185	406.45	29.1638
-37.6134	401.935	29.2224
-37.6071	408.24	29.281
-37.6029	405.243	29.3396
-37.5977	410.277	29.3982
-37.5935	403.087	29.4568
-37.5871	404.848	29.5154
-37.5831	405.067	29.574
-37.5787	403.568	29.6326
-37.5728	400.154	29.6912
-37.5687	401.422	29.7498
-37.5644	400.749	29.80835
-37.5595	398.458	29.8669
-37.5552	402.181	29.9255
-37.549	401.643	29.9841
-37.5441	403.032	30.0427
-37.5396	404.099	30.1013
-37.5346	406.186	30.1599
-37.5298	406.615	30.2185
-37.5251	407.088	30.2771
-37.5207	407.037	30.3357
-37.5148	404.961	30.3943
-37.5103	405.438	30.4529
-37.5059	404.088	30.5115
-37.5002	400.534	30.5701
-37.4956	398.79	30.6287
-37.4906	398.988	30.6873
-37.4846	396.333	30.74585
-37.4825	397.4624	30.8044
-37.47691	399.4213	30.863
-37.4704	396.808	30.9216
-37.4664	400.001	30.9802
-37.4607	400.785	31.0388
-37.4563	402.8454	31.0974
-37.45105	402.671	31.156
-37.4464	406.435	31.2146
-37.4414	401.452	31.2732
-37.4367	405.154	31.3318
-37.4322	401.963	31.3904
-37.428	400.98	31.449
-37.4213	397.29	31.5076
-37.4176	398.444	31.5662
-37.4131	396.5506	31.6248
-37.4077	397.115	31.68335
-37.4021	398.687	31.7419
-37.3979	397.078	31.8005
-37.3937	398.825	31.8591
-37.388	401.1543	31.9177
-37.3836	401.626	31.9763
-37.3789	400.9552	32.0349
-37.3744	403.048	32.0935
-37.3686	403.919	32.1521
-37.3636	401.47	32.2107
-37.3588	402.852	32.2693
-37.3548	399.19	32.3279
-37.3497	400.3844	32.3865
-37.3443	397.257	32.4451
-37.3393	396.065	32.5037
-37.3346	394.138	32.5623
-37.3311	394.249	32.62085
-37.3251	393.967	32.6794
-37.3193	393.097	32.738
-37.3148	394.101	32.7966
-37.3097	393.887	32.8552
-37.3055	396.307	32.9138
-37.3008	395.653	32.9724
-37.2949	399.095	33.031
-37.291	394.261	33.0896
-37.2868	398.205	33.1482
-37.281	393.943	33.2068
-37.2772	393.928	33.2654
-37.2716	388.745	33.324
-37.26543	389.019	33.3826
-37.2584	-34.2259	33.4412
-37.2552	-44.1316	33.4998
-37.2512	-44.51173	33.55835
-37.245	-46.3349	33.6169
-37.2413	-43.1576	33.6755
-37.236	-41.912	33.7341
-37.23127	-43.2064	33.7927
-37.2271	-40.55233	33.8513
-37.2221	-37.4086	33.9099
-37.2168	-39.4584	33.9685
-37.2131	-38.4439	34.0271
-37.2081	-35.6217	34.0857
-37.2029	-39.3271	34.1443
-37.1981	-39.60466	34.2029
-37.1925	-42.8447	34.2615
-37.1876	-41.1735	34.3201
-37.1838	-44.7354	34.3787
-37.179	-43.8642	34.4373
-37.1741	-46.2581	34.49585
-37.1681	-46.6545	34.5544
-37.1639	-45.7536	34.613
-37.1602	-44.2924	34.6716
-37.15387	-44.5313	34.7302
-37.1483	-43.01313	34.7888
-37.1444	-36.7582	34.8474
-37.139	-41.94	34.906
-37.13517	-37.3826	34.9646
-37.12867	-42.469	35.0232
-37.1245	-40.0214	35.0818
-37.1197	-42.584	35.1404
-37.1166	-47.3125	35.1892

File: 0.254_hd_uprint_typeiv_090_r(4).dat
MTS793|BTW|ENU|1|2|.|/|:|1|0|0|A

Data Header:			0.254_hd_uprint_typeiv_090_r0			Time:	20.0229	s	4/13/2019 11:04:23 PM
Data Acquisition:	Timed
Station Name:	ft40.cfg
Test File Name:	monotonic_0.2540_typeiv_solid_4545_uprint.tst
Displacement	Force	Running Time
mm	N	s
-40.04422	-153.728	0.0280762
-40.0402	-152.808	0.0964355
-40.0347	-151.815	0.164795
-40.0299	-147.006	0.2331543
-40.025	-143.299	0.301514
-40.019	-146.0883	0.369873
-40.0118	-141.91	0.438232
-40.0075	-137.431	0.5065918
-40.0013	-134.526	0.574951
-39.9952	-127.615	0.643311
-39.9892	-120.517	0.71167
-39.9854	-117.775	0.7800293
-39.9791	-117.989	0.848389
-39.9732	-110.919	0.916748
-39.9668	-108.258	0.985107
-39.9624	-109.509	1.05347
-39.9552	-108.0661	1.12183
-39.9496	-103.661	1.19019
-39.9444	-99.1184	1.25854
-39.9384	-95.7221	1.3269
-39.9329	-89.4869	1.39526
-39.928	-85.7064	1.463623
-39.9226	-83.3222	1.53198
-39.9155	-76.7533	1.60034
-39.9102	-73.9916	1.6687
-39.9042	-74.6816	1.73706
-39.8992	-73.2259	1.80542
-39.8918	-71.1306	1.87378
-39.887	-64.9609	1.94214
-39.8818	-63.9707	2.010498
-39.8764	-58.4306	2.07886
-39.8697	-55.20129	2.14722
-39.8643	-49.7046	2.21558
-39.85918	-44.1755	2.28394
-39.853	-40.4897	2.35229
-39.8475	-40.6134	2.42065
-39.8417	-37.1176	2.48901
-39.8353	-37.0688	2.557373
-39.8298	-33.67363	2.62573
-39.8254	-29.9374	2.69409
-39.8191	-27.2522	2.76245
-39.8133	-23.422	2.83081
-39.8072	-17.5199	2.89917
-39.8024	-12.5598	2.96753
-39.79512	-9.07598	3.03589
-39.7902	-5.31799	3.104248
-39.7849	-4.871582	3.17261
-39.779	-4.57554	3.24097
-39.7731	0.195265	3.30933
-39.7679	3.60224	3.37769
-39.7621	4.61192	3.44604
-39.7556	10.3833	3.5144
-39.7508	14.8381	3.58276
-39.7452	21.1897	3.651123
-39.74017	23.48382	3.71948
-39.7323	28.8721	3.78784
-39.7277	31.7303	3.8562
-39.7227	30.8755	3.92456
-39.7168	35.0404	3.99292
-39.7109	38.1168	4.06128
-39.7061	37.7779	4.12964
-39.6989	39.9489	4.197998
-39.6945	47.8528	4.26636
-39.6885	51.7073	4.33472
-39.6831	56.15424	4.40308
-39.6767	62.0096	4.47144
-39.6703	65.0043	4.53979
-39.6652	65.5408	4.60815
-39.6602	69.7114	4.67651
-39.6543	71.9652	4.744873
-39.6477	70.7938	4.81323
-39.6431	72.17	4.88159
-39.6359	80.7791	4.94995
-39.6315	84.5954	5.01831
-39.62598	87.1096	5.08667
-39.62011	92.9474	5.15503
-39.6146	99.631	5.22339
-39.6085	99.9523	5.291748
-39.6026	102.379	5.36011
-39.5969	105.589	5.42847
-39.5918	102.684	5.49683
-39.5859	104.226	5.56519
-39.58	111.685	5.63354
-39.5743	115.302	5.7019
-39.5699	118.004	5.77026
-39.563	126.531	5.838623
-39.5577	128.9386	5.90698
-39.5519	132.85	5.97534
-39.5452	136.196	6.0437
-39.5399	137.965	6.11206
-39.5335	136.916	6.18042
-39.5291	137.111	6.24878
-39.5225	143.069	6.31714
-39.5178	146.595	6.385498
-39.512	149.643	6.45386
-39.5074	155.1758	6.52222
-39.5006	159.883	6.59058
-39.4942	165.7941	6.65894
-39.48822	167.769	6.72729
-39.4836	169.765	6.79565
-39.4768	168.125	6.86401
-39.4721	170.137	6.932373
-39.4657	175.808	7.00073
-39.4598	176.161	7.06909
-39.4544	180.672	7.13745
-39.4492	184.891	7.20581
-39.44331	190.816	7.27417
-39.4372	196.096	7.34253
-39.4318	199.986	7.41089
-39.4262	203.128	7.479248
-39.4225	201.671	7.54761
-39.4155	203.879	7.61597
-39.4088	206.991	7.68433
-39.403	207.961	7.75269
-39.3968	210.961	7.82104
-39.3914	215.968	7.8894
-39.3865	220.482	7.95776
-39.3799	227.532	8.026123
-39.3743	231.433	8.09448
-39.3695	233.342	8.16284
-39.3637	233.054	8.2312
-39.3572	236.417	8.29956
-39.3512	239.001	8.36792
-39.3462	237.55	8.43628
-39.3404	242.159	8.50464
-39.3348	243.872	8.572998
-39.3299	249.754	8.64136
-39.3242	257.499	8.70972
-39.3182	261.019	8.77808
-39.3109	262.2612	8.84644
-39.3076	267.526	8.91479
-39.3014	269.103	8.98315
-39.2944	268.106	9.05151
-39.2896	268.515	9.119873
-39.2845	271.2421	9.18823
-39.2783	273.882	9.25659
-39.2726	279.383	9.32495
-39.2664	285.071	9.39331
-39.26025	290.252	9.46167
-39.25388	291.114	9.53003
-39.2495	294.942	9.59839
-39.2428	301.043	9.666748
-39.2387	299.3685	9.73511
-39.2314	299.2374	9.80347
-39.2277	302.171	9.87183
-39.2212	302.3215	9.94019
-39.2155	307.232	10.0085
-39.2094	314.801	10.0769
-39.2042	317.323	10.1453
-39.1991	316.457	10.2136
-39.193	323.887	10.282
-39.1864	330.221	10.3503
-39.1809	328.982	10.4187
-39.1756	327.438	10.4871
-39.1694	330.609	10.55542
-39.1651	331.164	10.6238
-39.15802	335.375	10.6921
-39.1524	341.265	10.7605
-39.1478	343.328	10.8289
-39.1419	344.454	10.8972
-39.13588	350.6655	10.9656
-39.1302	358.158	11.0339
-39.1248	356.261	11.1023
-39.1183	358.512	11.1707
-39.1127	361.435	11.239
-39.1079	359.769	11.3074
-39.1014	359.978	11.3757
-39.0961	365.863	11.4441
-39.0897	366.784	11.5125
-39.08453	369.234	11.5808
-39.0798	376.388	11.64917
-39.0737	382.672	11.7175
-39.0677	383.546	11.7859
-39.0609	384.401	11.8542
-39.0567	385.927	11.9226
-39.05098	386.322	11.991
-39.0448	387.857	12.0593
-39.0387	390.562	12.1277
-39.0326	392.196	12.196
-39.0262	393.039	12.2644
-39.02187	398.9852	12.3328
-39.0168	404.27	12.4011
-39.0108	406.542	12.4695
-39.0055	407.36	12.5378
-38.9982	410.523	12.6062
-38.99308	413.02	12.6746
-38.988	413.549	12.74292
-38.9818	412.936	12.8113
-38.9761	411.963	12.8796
-38.9693	414.5444	12.948
-38.96603	421.407	13.0164
-38.9601	423.316	13.0847
-38.954	425.874	13.1531
-38.9485	430.661	13.2214
-38.9413	430.582	13.2898
-38.937	434.811	13.3582
-38.9303	432.912	13.4265
-38.9246	431.551	13.4949
-38.91964	430.448	13.5632
-38.9143	432.511	13.6316
-38.9079	437.47	13.7
-38.9017	437.899	13.7683
-38.8966	444.872	13.83667
-38.8917	446.079	13.905
-38.8848	447.607	13.9734
-38.8795	449.6286	14.0417
-38.8746	451.174	14.1101
-38.8677	446.127	14.1785
-38.8621	444.555	14.2468
-38.8568	448.814	14.3152
-38.8517	450.0788	14.3835
-38.8453	449.978	14.4519
-38.8402	453.568	14.5203
-38.8339	458.585	14.5886
-38.82832	457.091	14.657
-38.8223	461.298	14.7253
-38.8172	461.994	14.7937
-38.812	458.4238	14.8621
-38.8063	455.813	14.93042
-38.8001	458.395	14.9988
-38.793	458.501	15.0671
-38.7882	457.528	15.1355
-38.7826	462.505	15.2039
-38.776	462.858	15.2722
-38.771	464.349	15.3406
-38.7659	468.95	15.4089
-38.7602	469.122	15.4773
-38.7539	465.859	15.5457
-38.7475	462.637	15.614
-38.7421	463.544	15.6824
-38.7371	462.724	15.7507
-38.7321	459.8374	15.8191
-38.7255	464.185	15.8875
-38.7205	464.8222	15.9558
-38.7142	466.48	16.02417
-38.7088	470.052	16.0925
-38.703	472.351	16.1609
-38.6974	466.399	16.2292
-38.6906	463.485	16.2976
-38.6865	468.442	16.366
-38.6808	462.278	16.4343
-38.6746	460.096	16.5027
-38.6687	462.453	16.571
-38.6626	462.447	16.6394
-38.6577	464.7789	16.7078
-38.65073	466.855	16.7761
-38.646	470.333	16.8445
-38.6397	464.626	16.9128
-38.6345	463.62	16.9812
-38.6297	466.017	17.0496
-38.624	460.643	17.11792
-38.6166	457.581	17.1863
-38.61068	457.674	17.2546
-38.6062	457.918	17.323
-38.6	460.662	17.3914
-38.5946	462.299	17.4597
-38.5883	463.558	17.5281
-38.5844	460.09	17.5964
-38.5765	460.199	17.6648
-38.5732	462.454	17.7332
-38.5659	456.9339	17.8015
-38.5608	453.623	17.8699
-38.5559	453.392	17.9382
-38.5485	452.158	18.0066
-38.5433	454.987	18.075
-38.5366	454.987	18.1433
-38.5314	457.3309	18.21167
-38.5255	455.2821	18.28
-38.5209	457.348	18.3484
-38.5147	457.733	18.4167
-38.5089	454.246	18.4851
-38.5038	451.011	18.5535
-38.4972	449.957	18.6218
-38.4926	449.723	18.6902
-38.4862	450.727	18.7585
-38.4815	451.714	18.8269
-38.4755	450.743	18.8953
-38.4696	450.599	18.9636
-38.4625	455.41	19.032
[...]
-38.1975	441.168	22.2351
-38.19503	438.01	22.2546
-38.1932	443.723	22.27417
-38.1921	446.651	22.2937
-38.19	435.089	22.3132
-38.1892	441.987	22.3328
-38.1866	444.242	22.3523
-38.1854	439.349	22.3718
-38.1835	441.3089	22.3914
-38.18177	445.453	22.4109
-38.1794	437.921	22.43042
-38.1796	440.224	22.45
-38.1769	444.773	22.4695
-38.1752	439.053	22.489
-38.1739	437.435	22.5085
-38.1726	444.096	22.5281
-38.1711	442.145	22.5476
-38.1691	436.548	22.5671
-38.167	443.365	22.58667
-38.1647	442.909	22.6062
-38.1642	438.873	22.6257
-38.1622	439.691	22.6453
-38.1607	443.023	22.6648
-38.16	436.334	22.6843
-38.1571	440.279	22.7039
-38.1554	445.105	22.7234
-38.1553	439.898	22.74292
-38.1533	434.124	22.7625
-38.1509	444.92	22.782
-38.1489	438.752	22.8015
-38.1466	437.186	22.821
-38.1465	442.033	22.8406
-38.1453	442.892	22.8601
-38.1426	433.308	22.8796
-38.1419	442.879	22.89917
-38.1399	440.684	22.9187
-38.1368	435.353	22.9382
-38.1364	439.446	22.9578
-38.1356	443.468	22.9773
-38.1332	433.943	22.9968
-38.1325	439.16	23.0164
-38.1307	440.944	23.0359
-38.13028	437.881	23.05542
-38.1268	438.016	23.075
-38.1249	440.198	23.0945
-38.1231	436.037	23.114
-38.122	435.306	23.1335
-38.1205	439.9118	23.1531
-38.1197	439.6467	23.1726
-38.1165	435.263	23.1921
-38.116	438.424	23.21167
-38.1131	441.365	23.2312
-38.1117	431.748	23.2507
-38.1112	437.034	23.2703
-38.10944	440.6322	23.2898
-38.1064	434.89	23.3093
-38.1051	433.474	23.3289
-38.104	439.917	23.3484
-38.1024	430.492	23.36792
-38.1007	434.076	23.3875
-38.10043	439.878	23.407
-38.0976	436.069	23.4265
-38.0956	427.158	23.446
-38.0937	438.099	23.4656
-38.0917	435.434	23.4851
-38.0893	429.531	23.5046
-38.0901	432.951	23.52417
-38.08815	430.806	23.5437
-38.0827	-47.5465	23.5632
-38.0823	-20.0849	23.5828
-38.0821	-42.4117	23.6023
-38.0788	-42.1524	23.6218
-38.0779	-40.4157	23.6414
-38.07653	-35.5051	23.6609
-38.0748	-43.8039	23.68042
-38.07423	-43.1207	23.7
-38.0729	-38.0962	23.7195
-38.0714	-41.7872	23.739
-38.0696	-43.5025	23.7585
-38.0683	-39.2677	23.7781
-38.0667	-42.5653	23.7976
-38.0641	-44.048	23.8171
-38.0621	-39.34869	23.83667
-38.0608	-39.2843	23.8562
-38.0596	-44.7496	23.8757
-38.0578	-42.7775	23.8953
-38.0559	-38.7398	23.9148
-38.05471	-44.5356	23.9343
-38.0526	-42.6633	23.9539
-38.0529	-37.8028	23.9734
-38.0498	-41.5156	23.99292
-38.0477	-44.9077	24.0125
-38.04747	-36.8805	24.032
-38.0457	-43.8904	24.0515
-38.0444	-46.3487	24.071
-38.0418	-37.1404	24.0906
-38.0408	-38.04089	24.1101
-38.0382	-48.568	24.1296
-38.0364	-39.1776	24.14917
-38.0352	-39.99	24.1687
-38.0342	-43.5285	24.1882
-38.0319	-41.9967	24.2078
-38.0299	-36.8224	24.2273
-38.0288	-46.21323	24.2468
-38.02652	-41.8187	24.2664
-38.0255	-40.07	24.2859
-38.025	-43.6361	24.30542
-38.0215	-43.07309	24.325
-38.0199	-38.2995	24.3445
-38.0189	-42.7913	24.364
-38.0171	-44.4531	24.3835
-38.01519	-40.4656	24.4031
-38.0138	-40.5796	24.4226
-38.0117	-42.7779	24.4421
-38.0124	-41.4588	24.46167
-38.0096	-39.853	24.4812
-38.0077	-45.883	24.5007
-38.0072	-39.826	24.5203
-38.0043	-38.8046	24.5398
-38.003	-42.074	24.5593
-38.0012	-46.3825	24.5789
-37.9989	-36.4327	24.5984
-37.9979	-43.5557	24.61792
-37.9962	-43.5682	24.6375
-37.9949	-39.8305	24.657
-37.9933	-40.2608	24.6765
-37.9922	-46.8478	24.696
-37.9906	-37.812	24.7156
-37.9883	-42.9192	24.7351
-37.9869	-45.1931	24.7546
-37.9847	-39.8059	24.77417
-37.9833	-37.1692	24.7937
-37.982	-48.397	24.8132
-37.9803	-41.1957	24.8328
-37.97826	-38.8149	24.8523
-37.9765	-43.4997	24.8718
-37.9746	-43.5108	24.8914
-37.9738	-37.9391	24.9109
-37.9722	-44.3421	24.93042
-37.97028	-43.7641	24.95
-37.9692	-39.7248	24.9695
-37.9672	-42.1324	24.989
-37.9658	-43.489	25.0085
-37.9634	-39.5231	25.0281