Folder: Stress_Strain_Analysis_Tools/data/processed_data_files/tensile (part 18)

File: 0.254_hd_uprint_typei_4545_r(2).dat
MTS793|BTW|ENU|1|2|.|/|:|1|0|0|A

Data Header:			0.254_hd_uprint_typei_4545_r0			Time:	20.021	s	4/15/2019 4:05:40 PM
Data Acquisition:	Timed
Station Name:	ft40.cfg
Test File Name:	monotonic_0.2540_typei_hd_4545_uprint.tst
Displacement	Force	Running Time
mm	N	s
9.98	-132.309	0.0244141
9.98212	-127.8594	0.0927734
9.987	-128.937	0.161133
9.99315	-124.934	0.229492
9.99905	-119.1972	0.297852
10.0041	-116.998	0.366211
10.0102	-114.365	0.43457
10.0164	-112.813	0.50293
10.0214	-114.821	0.571289
10.0264	-117.154	0.639648
10.0328	-115.854	0.708008
10.0386	-112.047	0.776367
10.0438	-110.999	0.844727
10.0498	-107.544	0.913086
10.0556	-101.5385	0.981445
10.0612	-97.6573	1.0498
10.067	-95.492	1.11816
10.072	-90.7448	1.18652
10.0782	-90.4196	1.25488
10.0833	-93.6302	1.32324
10.089	-91.5841	1.3916
10.0948	-89.8898	1.45996
10.1015	-90.9242	1.52832
10.1068	-85.8198	1.59668
10.11296	-82.89505	1.66504
10.1189	-76.67141	1.7334
10.1245	-72.1409	1.80176
10.13039	-69.6951	1.87012
10.1362	-69.4533	1.93848
10.14204	-70.8057	2.00684
10.14742	-67.2106	2.0752
10.1522	-66.7072	2.14355
10.15868	-66.422	2.21191
10.16339	-64.7088	2.28027
10.1696	-62.183	2.34863
10.175	-55.7871	2.41699
10.1807	-48.3898	2.48535
10.18641	-46.3712	2.55371
10.193	-46.4483	2.62207
10.1971	-42.3566	2.69043
10.20379	-39.791	2.75879
10.2095	-42.9889	2.82715
10.2148	-41.4514	2.89551
10.2214	-38.6875	2.96387
10.2258	-37.7684	3.03223
10.23253	-32.9469	3.10059
10.23841	-25.1287	3.16895
10.2438	-22.8473	3.2373
10.2488	-22.2094	3.30566
10.2545	-17.4815	3.37402
10.2606	-13.3373	3.44238
10.2665	-15.4989	3.51074
10.273	-14.3479	3.5791
10.2782	-12.1225	3.64746
10.2839	-13.1734	3.71582
10.2893	-8.48195	3.78418
10.2945	-1.20537	3.85254
10.3001	2.19789	3.9209
10.3056	4.17693	3.98926
10.3125	8.84753	4.05762
10.3179	14.5827	4.12598
10.3236	13.1591	4.19434
10.3298	13.4122	4.2627
10.3355	16.707	4.33105
10.34	13.887	4.39941
10.3466	16.4535	4.46777
10.3516	24.4962	4.53613
10.3574	28.2339	4.60449
10.3624	30.1581	4.67285
10.368	37.0271	4.74121
10.37454	44.1877	4.80957
10.3806	42.1422	4.87793
10.3858	42.5881	4.94629
10.3924	45.9238	5.01465
10.397	43.2656	5.08301
10.4026	45.8732	5.15137
10.4086	50.5808	5.21973
10.414	53.8196	5.28809
10.4193	54.9637	5.35645
10.4249	63.7894	5.4248
10.4307	69.7382	5.49316
10.4375	70.6778	5.56152
10.4419	71.994	5.62988
10.4486	73.513	5.69824
10.4542	72.5422	5.7666
10.4595	75.2784	5.83496
10.4648	77.023	5.90332
10.47177	79.3672	5.97168
10.4759	82.9066	6.04004
10.4826	90.7113	6.1084
10.4883	97.9319	6.17676
10.4947	98.9274	6.24512
10.5004	103.146	6.31348
10.5054	103.144	6.38184
10.5108	103.785	6.4502
10.517	104.457	6.51855
10.5223	106.963	6.58691
10.5283	105.224	6.65527
10.5339	110.571	6.72363
10.53956	117.929	6.79199
10.5459	122.3336	6.86035
10.5513	127.148	6.92871
10.5571	131.4565	6.99707
10.5616	132.324	7.06543
10.5691	133.533	7.13379
10.5741	134.255	7.20215
10.5797	134.129	7.27051
10.5855	133.06	7.33887
10.5909	136.81	7.40723
10.5969	146.279	7.47559
10.6024	148.644	7.54395
10.6088	152.763	7.6123
10.6134	158.932	7.68066
10.619	160.688	7.74902
10.6249	162.5285	7.81738
10.6304	165.241	7.88574
10.6363	162.793	7.9541
10.6424	161.1636	8.02246
10.6474	165.576	8.09082
10.6535	171.78	8.15918
10.6591	174.546	8.22754
10.665	179.474	8.2959
10.6717	187.694	8.36426
10.6758	189.406	8.43262
10.6814	191.642	8.50098
10.6883	195.486	8.56934
10.6932	195.192	8.6377
10.6984	190.75	8.70605
10.7038	193.121	8.77441
10.7097	200.195	8.84277
10.7162	202.308	8.91113
10.722	206.018	8.97949
10.7271	213.629	9.04785
10.734	217.698	9.11621
10.7395	220.959	9.18457
10.7448	224.4783	9.25293
10.7509	223.705	9.32129
10.7558	219.572	9.38965
10.7619	223.92	9.45801
10.7683	228.73	9.52637
10.7731	229.332	9.59473
10.7787	233.734	9.66309
10.7849	241.37	9.73145
10.7898	244.6722	9.7998
10.7948	250.442	9.86816
10.8016	253.1086	9.93652
10.80756	252.673	10.0049
10.8131	251.47	10.0732
10.8177	253.5	10.1416
10.8241	256.392	10.21
10.8292	257.065	10.27832
10.8358	259.219	10.34668
10.8421	268.298	10.415
10.8476	271.67	10.4834
10.8526	278.289	10.5518
10.8593	281.591	10.6201
10.8639	282.919	10.6885
10.8705	280.599	10.7568
10.8754	283.876	10.8252
10.8822	283.926	10.8936
10.887	286.294	10.9619
10.89195	288.404	11.0303
10.897	290.991	11.0986
10.9047	298.149	11.167
10.9098	304.32	11.2354
10.9162	309.052	11.3037
10.9222	309.005	11.37207
10.9276	311.631	11.44043
10.9326	315.657	11.5088
10.9379	314.43	11.5771
10.9439	313.201	11.6455
10.9504	317.351	11.7139
10.95559	318.474	11.7822
10.9616	323.901	11.8506
10.9673	330.78	11.9189
10.9726	334.34	11.9873
10.9786	335.738	12.0557
10.9841	339.077	12.124
10.9892	345.018	12.1924
10.9953	343.398	12.2607
11.0009	341.358	12.3291
11.0068	345.325	12.3975
11.0131	344.118	12.46582
11.01769	348.915	12.53418
11.0237	355.973	12.6025
11.0291	360.6322	12.6709
11.0344	361.346	12.7393
11.04187	366.486	12.8076
11.04586	372.545	12.876
11.0522	370.215	12.9443
11.0574	370.652	13.0127
11.0642	371.329	13.0811
11.069	373.173	13.1494
11.0753	374.553	13.2178
11.0792	380.481	13.2861
11.0855	387.285	13.3545
11.0925	386.261	13.4229
11.0981	393.343	13.4912
11.1044	400.112	13.55957
11.1088	402.125	13.62793
11.1141	397.902	13.6963
11.1212	400.566	13.7646
11.127	401.44	13.833
11.1319	401.425	13.9014
11.13783	406.706	13.9697
11.1432	409.971	14.0381
11.1489	411.61	14.1064
11.1553	419.62	14.1748
11.1599	427.384	14.2432
11.1663	426.5383	14.3115
11.1718	427.764	14.3799
11.17891	428.7467	14.4482
11.1836	427.253	14.5166
11.18974	430.956	14.585
11.1946	432.818	14.65332
11.2021	433.282	14.72168
11.2053	436.689	14.79
11.2111	444.818	14.8584
11.2175	451.502	14.9268
11.2234	453.782	14.9951
11.2286	456.391	15.0635
11.2353	456.02	15.1318
11.2399	455.163	15.2002
11.2458	456.204	15.2686
11.2518	457.813	15.3369
11.2568	457.2077	15.4053
11.2631	459.384	15.4736
11.2685	469.489	15.542
11.2753	474.635	15.6104
11.2803	479.123	15.6787
11.2851	482.511	15.74707
11.2909	482.88	15.81543
11.29703	483.89	15.8838
11.3024	486.15	15.9521
11.3093	483.337	16.0205
11.3145	481.182	16.0889
11.3192	484.336	16.1572
11.3256	494.097	16.2256
11.331	499.034	16.2939
11.336	501.814	16.3623
11.34306	508.412	16.4307
11.3482	510.009	16.499
11.3543	508.776	16.5674
11.3597	511.054	16.6357
11.3651	512.012	16.7041
11.3716	507.116	16.7725
11.3776	508.467	16.84082
11.3834	517.321	16.90918
11.3873	520.599	16.9775
11.3941	523.751	17.0459
11.4002	532.225	17.1143
11.4053	534.073	17.1826
11.41108	535.675	17.251
11.41711	537.706	17.3193
11.4231	535.966	17.3877
11.4276	530.5434	17.4561
11.4328	533.462	17.5244
11.44005	540.399	17.5928
11.44551	543.153	17.6611
11.4508	547.091	17.7295
11.4569	554.448	17.7979
11.4629	557.5144	17.8662
11.4682	561.331	17.93457
11.4736	561.627	18.00293
11.4794	562.349	18.0713
11.4842	557.225	18.1396
11.4909	557.49	18.208
11.4962	564.568	18.2764
11.502	564.038	18.3447
11.5068	568.125	18.4131
11.5135	574.993	18.4814
11.5195	578.373	18.5498
11.5248	583.922	18.6182
11.5302	585.0094	18.6865
11.537	583.437	18.7549
11.5425	582.477	18.8232
11.5468	582.8	18.8916
11.5542	585.0473	18.96
11.559	586.329	19.02832
11.5644	589.041	19.09668
11.5707	594.162	19.165
11.5766	599.561	19.2334
11.5821	606.8103	19.3018
11.5875	608.321	19.3701
11.5938	607.351	19.4385
11.5993	607.773	19.5068
11.6052	609.478	19.5752
11.6104	609.44	19.6436
11.6161	608.596	19.7119
11.6214	612.193	19.7803
11.6267	616.089	19.8486
11.6334	618.139	19.917
11.6388	626.703	19.9854
[...]
13.4523	840.607	41.75293
13.4547	830.734	41.7822
13.4578	840.978	41.8115
13.4591	830.716	41.84082
13.4623	841.547	41.8701
13.4657	831.115	41.8994
13.46723	840.015	41.9287
13.4696	830.305	41.958
13.472	837.976	41.9873
13.4743	833.429	42.0166
13.4767	834.188	42.0459
13.48	832.944	42.0752
13.482	834.071	42.1045
13.4832	835.031	42.1338
13.4877	828.0058	42.1631
13.48848	836.143	42.1924
13.4928	829.4762	42.22168
13.4941	837.319	42.251
13.4958	822.768	42.2803
13.4993	835.073	42.30957
13.5013	824.744	42.3389
13.5032	835.153	42.3682
13.5073	822.243	42.3975
13.5088	835.468	42.4268
13.5107	825.814	42.4561
13.5127	830.787	42.4854
13.516	820.788	42.5146
13.519	828.593	42.5439
13.52135	827.145	42.5732
13.5243	823.906	42.6025
13.5265	825.243	42.6318
13.5289	821.6297	42.6611
13.5308	826.3288	42.69043
13.5327	816.651	42.7197
13.5356	827.554	42.749
13.538	816.669	42.77832
13.5402	826.119	42.8076
13.5437	813.877	42.8369
13.545	822.807	42.8662
13.5478	813.854	42.8955
13.5501	820.849	42.9248
13.5522	814.377	42.9541
13.5541	819.7915	42.9834
13.557	812.077	43.0127
13.5604	811.571	43.042
13.5623	813.645	43.0713
13.565	812.8642	43.1006
13.5681	813.685	43.1299
13.5696	805.448	43.15918
13.573	814.385	43.1885
13.5755	803.54	43.2178
13.5778	809.561	43.24707
13.58	801.329	43.2764
13.5824	813.09	43.3057
13.5841	801.674	43.335
13.5878	805.483	43.3643
13.5899	798.714	43.3936
13.5911	804.516	43.4229
13.5943	799.128	43.4521
13.5972	794.1452	43.4814
13.5991	788.0528	43.5107
13.6086	-14.6071	43.54
13.6077	-51.3037	43.5693
13.6077	-52.80006	43.5986
13.6105	-42.0291	43.62793
13.61275	-52.8433	43.6572
13.61498	-44.3286	43.6865
13.6169	-56.9812	43.71582
13.6197	-44.4398	43.7451
13.6221	-54.9171	43.7744
13.6244	-44.6803	43.8037
13.6261	-51.6776	43.833
13.629	-44.5798	43.8623
13.63195	-52.3407	43.8916
13.6341	-46.0197	43.9209
13.6362	-49.66	43.9502
13.6386	-49.2676	43.9795
13.64085	-46.2953	44.0088
13.6433	-50.9304	44.0381
13.6476	-44.3385	44.0674
13.6483	-55.6516	44.09668
13.6511	-45.17197	44.126
13.6539	-50.5679	44.1553
13.656	-39.5485	44.18457
13.6592	-55.26368	44.2139
13.6607	-42.2969	44.2432
13.6625	-53.3982	44.2725
13.66516	-43.3183	44.3018
13.6671	-53.9484	44.3311
13.671	-44.6787	44.3604
13.6731	-47.6096	44.3896
13.6746	-47.1991	44.4189
13.6769	-52.8109	44.4482
13.681	-49.1793	44.4775
13.6828	-44.9596	44.5068
13.6841	-50.4265	44.5361
13.688	-46.3173	44.56543
13.6902	-52.65678	44.5947
13.6923	-43.3325	44.624
13.6944	-53.5417	44.65332
13.6967	-46.7761	44.6826
13.6994	-51.6818	44.7119
13.701	-42.0894	44.7412
13.7052	-52.5479	44.7705
13.7071	-47.1299	44.7998
13.7086	-50.41164	44.8291
13.711	-46.7508	44.8584
13.7144	-48.2432	44.8877
13.7166	-48.2805	44.917
13.7199	-46.7402	44.9463
13.7212	-52.0156	44.9756
13.7245	-46.3996	45.0049
13.726	-50.8134	45.03418
13.7284	-45.5821	45.0635
13.7313	-51.4082	45.0928
13.73368	-43.1584	45.12207
13.7362	-52.6444	45.1514
13.7388	-46.2491	45.1807
13.7417	-53.5573	45.21
13.7441	-43.8029	45.2393
13.7453	-48.4486	45.2686
13.7483	-49.162	45.2979
13.7512	-50.1143	45.3271
13.7535	-46.4997	45.3564
13.7555	-46.8334	45.3857
13.7578	-53.614	45.415
13.7609	-45.0201	45.4443
13.7635	-50.4552	45.4736
13.7654	-45.6834	45.50293
13.7669	-57.1238	45.5322
13.7702	-43.4494	45.5615
13.7736	-54.061	45.59082
13.77535	-42.5666	45.6201
13.7783	-54.589	45.6494
13.7797	-41.913	45.6787
13.782	-52.2349	45.708
13.7848	-45.5028	45.7373
13.7876	-53.2004	45.7666
13.7895	-46.2282	45.7959
13.7922	-50.55	45.8252
13.7947	-49.7705	45.8545
13.7977	-49.3855	45.8838
13.7999	-52.73708	45.9131
13.8019	-45.633	45.9424
13.8041	-51.58	45.97168
13.8072	-42.3162	46.001
13.8101	-56.3798	46.0303
13.812	-43.8052	46.05957
13.8145	-53.4142	46.0889

File: 0.254_hd_uprint_typei_4545_r(3).dat
MTS793|BTW|ENU|1|2|.|/|:|1|0|0|A

Data Header:			0.254_hd_uprint_typei_4545_r0			Time:	20.022	s	4/15/2019 4:08:35 PM
Data Acquisition:	Timed
Station Name:	ft40.cfg
Test File Name:	monotonic_0.2540_typei_hd_4545_uprint.tst
Displacement	Force	Running Time
mm	N	s
13.8169	-156.303	0.0246582
13.8192	-152.722	0.0930176
13.8232	-148.328	0.161377
13.829	-150.538	0.229736
13.83584	-152.323	0.2980957
13.8413	-153.578	0.366455
13.847	-153.982	0.434814
13.8525	-152.0011	0.503174
13.8587	-149.703	0.5715332
13.86424	-147.991	0.639893
13.8701	-144.7692	0.708252
13.87557	-138.952	0.776611
13.8809	-132.073	0.8449707
13.8858	-133.293	0.91333
13.8922	-134.87	0.981689
13.8973	-133.545	1.05005
13.9039	-136.542	1.11841
13.9095	-135.453	1.18677
13.9148	-133.243	1.255127
13.9208	-130.014	1.32349
13.9264	-126.946	1.39185
13.9321	-119.558	1.46021
13.9371	-115.986	1.52856
13.9432	-114.7294	1.59692
13.9492	-111.003	1.66528
13.9545	-112.681	1.73364
13.9611	-113.988	1.802002
13.9669	-114.155	1.87036
13.9721	-113.36	1.93872
13.9781	-114.4939	2.00708
13.9841	-108.639	2.07544
13.9887	-101.338	2.1438
13.9944	-96.5552	2.21216
14.0007	-92.4484	2.28052
14.0061	-89.3495	2.348877
14.0129	-90.0012	2.41724
14.0172	-90.6491	2.4856
14.0228	-90.249	2.55396
14.0295	-89.3596	2.62231
14.0346	-92.1437	2.69067
14.0411	-88.0889	2.75903
14.0464	-79.7257	2.82739
14.0522	-76.6528	2.895752
14.0572	-72.5178	2.96411
14.0624	-67.03421	3.03247
14.0695	-66.1572	3.10083
14.0749	-65.3381	3.16919
14.08	-64.58	3.23755
14.0863	-65.6413	3.30591
14.0918	-68.1911	3.37427
14.0976	-65.7464	3.442627
14.1027	-56.8516	3.51099
14.1085	-54.2358	3.57935
14.11438	-49.4721	3.64771
14.1197	-43.1741	3.71606
14.1254	-39.2324	3.78442
14.13275	-39.8163	3.85278
14.13716	-37.6148	3.92114
14.1433	-37.8631	3.989502
14.1484	-41.2863	4.05786
14.15381	-39.2411	4.12622
14.15922	-32.5134	4.19458
14.1649	-29.1149	4.26294
14.1721	-26.3992	4.3313
14.1775	-18.4844	4.39966
14.1814	-14.63644	4.46802
14.1886	-11.9702	4.536377
14.1947	-12.0755	4.60474
14.2	-10.3864	4.6731
14.2062	-14.6557	4.74146
14.2111	-12.7723	4.80981
14.217	-7.53994	4.87817
14.2223	-4.31286	4.94653
14.2274	-1.21308	5.01489
14.2347	4.55922	5.083252
14.2396	10.88736	5.15161
14.2452	15.3879	5.21997
14.2514	17.6575	5.28833
14.2564	16.2082	5.35669
14.262	14.3542	5.42505
14.2683	16.0542	5.49341
14.2739	19.3201	5.56177
14.2793	21.17271	5.630127
14.2845	25.0872	5.69849
14.2895	32.3752	5.76685
14.2969	35.8052	5.83521
14.30189	42.94	5.90356
14.3081	45.9965	5.97192
14.3135	45.15379	6.04028
14.3201	44.4865	6.10864
14.3253	47.4183	6.177002
14.3304	48.577	6.24536
14.3368	48.3259	6.31372
14.3425	51.5382	6.38208
14.3462	56.7632	6.45044
14.354	63.1933	6.5188
14.359	70.1662	6.58716
14.3647	73.9719	6.65552
14.3698	73.8376	6.723877
14.3775	75.5588	6.79224
14.3827	80.5659	6.8606
14.3886	76.271	6.92896
14.39321	75.4855	6.99731
14.40007	80.3143	7.06567
14.4052	83.4281	7.13403
14.4104	88.9833	7.20239
14.416	96.32856	7.270752
14.4211	103.108	7.33911
14.427	101.584	7.40747
14.434	105.225	7.47583
14.4393	109.534	7.54419
14.4444	108.92	7.61255
14.4512	104.971	7.68091
14.4567	110.309	7.74927
14.4618	112.3754	7.817627
14.4671	116.144	7.88599
14.4726	122.744	7.95435
14.4798	128.259	8.02271
14.4847	129.592	8.09106
14.49	132.9144	8.15942
14.49583	138.846	8.22778
14.5017	138.929	8.29614
14.5071	137.373	8.364502
14.5126	138.435	8.43286
14.5183	138.878	8.50122
14.5251	142.856	8.56958
14.5301	148.118	8.63794
14.5356	153.6622	8.7063
14.5412	156.279	8.77466
14.5478	162.935	8.84302
14.5535	169.017	8.911377
14.5594	169.741	8.97974
14.5641	167.126	9.0481
14.5702	169.289	9.11646
14.57591	167.599	9.18481
14.5816	169.165	9.25317
14.587	174.844	9.32153
14.5933	181.3998	9.38989
14.5993	183.642	9.458252
14.6046	190.474	9.52661
14.6096	197.195	9.59497
14.6158	197.633	9.66333
14.6214	200.011	9.73169
14.6275	199.584	9.80005
14.6318	198.435	9.86841
14.6381	199.315	9.93677
14.6444	202.579	10.0051
14.6509	204.946	10.0735
14.6553	208.527	10.1418
14.66132	218.649	10.2102
14.6668	223.6264	10.2786
14.6722	227.6658	10.3469
14.67802	228.204	10.4153
14.68417	230.937	10.4836
14.68971	227.092	10.552
14.6951	229.318	10.6204
14.7003	230.899	10.6887
14.7065	231.219	10.75708
14.7131	236.152	10.8254
14.7178	243.699	10.8938
14.72451	249.814	10.9622
14.7301	254.409	11.0305
14.7355	258.681	11.0989
14.7412	260.275	11.1672
14.7469	258.965	11.2356
14.7514	259.7597	11.304
14.7581	260.752	11.3723
14.7633	256.105	11.4407
14.7705	262.948	11.509
14.7753	273.221	11.5774
14.7808	276.626	11.6458
14.7869	280.144	11.7141
14.7912	288.7341	11.7825
14.7979	289.821	11.85083
14.8034	289.843	11.9192
14.8101	290.602	11.9875
14.8145	289.316	12.0559
14.8193	285.747	12.1243
14.827	290.014	12.1926
14.83207	298.135	12.261
14.8375	302.1857	12.3293
14.8436	308.972	12.3977
14.8481	315.952	12.4661
14.8543	317.209	12.5344
14.8609	319.376	12.6028
14.8667	320.1459	12.6711
14.8716	317.168	12.7395
14.8773	314.594	12.8079
14.883	315.808	12.8762
14.8896	322.578	12.94458
14.8945	327.101	13.0129
14.9006	330.593	13.0813
14.9064	340.635	13.1497
14.9125	344.062	13.218
14.9177	347.1131	13.2864
14.9237	348.166	13.3547
14.9283	346.84	13.4231
14.9335	343.477	13.4915
14.9402	344.611	13.5598
14.9458	350.492	13.6282
14.9518	352.085	13.6965
14.9581	356.249	13.7649
14.9622	363.733	13.8333
14.9685	370.197	13.9016
14.9757	375.393	13.97
14.9801	377.562	14.03833
14.9855	375.809	14.1067
14.991	373.797	14.175
14.9963	373.8754	14.2434
15.0035	376.773	14.3118
15.009	378.953	14.3801
15.0144	381.5303	14.4485
15.018	389.2587	14.5168
15.0255	394.641	14.5852
15.0312	401.992	14.6536
15.0377	404.017	14.7219
15.0429	401.287	14.7903
15.0491	401.874	14.8586
15.0539	403.7655	14.927
15.0607	403.011	14.9954
15.0654	404.532	15.0637
15.0705	407.592	15.13208
15.076	411.609	15.2004
15.0822	418.703	15.2688
15.0881	426.555	15.3372
15.0932	431.444	15.4055
15.0999	428.4303	15.4739
15.1047	431.059	15.5422
15.11219	432.735	15.6106
15.1164	432.227	15.679
15.1225	430.808	15.7473
15.12759	434.164	15.8157
15.134	435.623	15.884
15.1397	441.77	15.9524
15.1448	448.581	16.0208
15.1509	454.361	16.0891
15.1567	456.036	16.1575
15.1625	458.1348	16.22583
15.168	461.942	16.2942
15.1741	458.095	16.3625
15.1791	458.047	16.4309
15.1859	459.258	16.4993
15.1905	460.666	16.5676
15.1965	463.87	16.636
15.202	471.28	16.7043
15.2078	477.244	16.7727
15.2137	479.0076	16.8411
15.2186	486.6008	16.9094
15.2247	490.953	16.9778
15.2313	486.653	17.0461
15.2361	485.922	17.1145
15.2423	487.573	17.1829
15.2481	485.779	17.2512
15.25401	487.954	17.31958
15.2595	494.219	17.3879
15.2641	499.4574	17.4563
15.2707	503.962	17.5247
15.2761	509.023	17.593
15.2824	516.23	17.6614
15.2874	512.448	17.7297
15.2926	512.39	17.7981
15.29819	512.11	17.8665
15.3052	510.854	17.9348
15.3111	513.3465	18.0032
15.316	515.0672	18.0715
15.3218	520.304	18.1399
15.3283	527.25	18.2083
15.3326	533.162	18.2766
15.3378	539.46	18.345
15.345	541.303	18.41333
15.3506	540.2998	18.4817
15.3562	536.492	18.55
15.3613	536.713	18.6184
15.3673	538.453	18.6868
15.3737	539.628	18.7551
15.3789	541.806	18.8235
15.3838	547.6123	18.8918
15.3904	556.12	18.9602
15.3953	560.585	19.0286
15.4006	563.404	19.0969
15.4076	566.553	19.1653
15.4131	563.93	19.2336
15.4185	561.7998	19.302
15.4249	563.357	19.3704
15.4293	562.593	19.4387
15.4355	561.7561	19.50708
15.4409	567.124	19.5754
15.4473	579.738	19.6438
15.45338	580.338	19.7122
15.4584	585.273	19.7805
[...]
17.357	827.8667	42.5637
17.359	837.182	42.5833
17.3603	843.1	42.6028
17.362	829.512	42.6223
17.3643	828.578	42.6418
17.3652	842.616	42.6614
17.367	825.864	42.6809
17.3681	826.5423	42.7004
17.3707	839.717	42.72
17.37258	828.576	42.7395
17.374	818.528	42.759
17.3753	836.4292	42.7786
17.3757	830.15	42.7981
17.37838	818.184	42.8176
17.3803	830.392	42.8372
17.3819	830.146	42.8567
17.3832	815.655	42.8762
17.3845	828.049	42.8958
17.3857	831.113	42.9153
17.3869	814.95	42.9348
17.3898	820.34	42.9543
17.3916	829.812	42.9739
17.39217	817.959	42.9934
17.3947	812.324	43.0129
17.39724	826.289	43.0325
17.3975	814.259	43.052
17.3988	807.401	43.0715
17.4011	812.444	43.0911
17.4028	808.429	43.1106
17.4036	792.7309	43.1301
17.4066	801.628	43.1497
17.40764	795.178	43.1692
17.4091	774.929	43.1887
17.41695	-111.56	43.2083
17.4169	-39.3166	43.2278
17.4174	-57.8399	43.2473
17.417	-50.83997	43.2668
17.41852	-39.6222	43.2864
17.4204	-50.6021	43.3059
17.422	-55.7286	43.3254
17.4232	-37.2393	43.345
17.4255	-50.6369	43.3645
17.4258	-54.143	43.384
17.4278	-39.2383	43.4036
17.4287	-46.1445	43.4231
17.4307	-59.5396	43.4426
17.4326	-43.3662	43.4622
17.4336	-41.4503	43.4817
17.43578	-55.7333	43.5012
17.4373	-46.2748	43.5208
17.4389	-41.59	43.5403
17.4401	-55.5894	43.5598
17.44261	-47.7884	43.5793
17.4445	-38.7305	43.5989
17.4458	-52.0723	43.6184
17.44663	-50.2114	43.6379
17.4481	-41.39983	43.6575
17.4496	-48.07972	43.677
17.45113	-55.46162	43.6965
17.45336	-41.1571	43.7161
17.4549	-46.3384	43.7356
17.4565	-53.2902	43.7551
17.4583	-46.6552	43.7747
17.45985	-41.4733	43.7942
17.4626	-56.5802	43.8137
17.4634	-45.414	43.8333
17.4642	-40.4212	43.8528
17.4665	-51.8229	43.8723
17.4689	-52.48315	43.8918
17.4697	-38.8928	43.9114
17.4713	-50.282	43.9309
17.4721	-50.8674	43.9504
17.4747	-39.7991	43.97
17.47714	-47.55267	43.9895
17.4776	-55.3581	44.009
17.4789	-38.1472	44.0286
17.4809	-46.461	44.0481
17.482	-55.4721	44.0676
17.4847	-41.8026	44.0872
17.4863	-42.4433	44.1067
17.4868	-56.298	44.1262
17.4886	-46.3635	44.1458
17.4913	-41.5848	44.1653
17.4923	-53.2004	44.1848
17.4943	-47.4541	44.2043
17.4954	-43.5213	44.2239
17.4972	-51.9576	44.2434
17.4976	-51.46933	44.2629
17.5004	-37.8896	44.2825
17.5011	-49.2546	44.302
17.5043	-52.1948	44.3215
17.50584	-43.5904	44.3411
17.5071	-41.9	44.3606
17.508	-53.4417	44.3801
17.5105	-42.7384	44.3997
17.5115	-43.6744	44.4192
17.5129	-51.6753	44.4387
17.5159	-48.01004	44.4583
17.5173	-40.0059	44.4778
17.51893	-54.6899	44.4973
17.52	-47.6999	44.5168
17.5217	-37.10648	44.5364
17.52268	-49.8696	44.5559
17.5255	-54.9335	44.5754
17.527	-38.16095	44.595
17.529	-48.1119	44.6145
17.52932	-52.8103	44.634
17.5313	-41.6255	44.6536
17.5327	-45.6942	44.6731
17.5353	-55.8393	44.6926
17.5363	-42.1593	44.7122
17.5381	-43.5358	44.7317
17.539	-55.6957	44.7512
17.5409	-44.6495	44.7708
17.5427	-42.9175	44.7903
17.5434	-55.61311	44.8098
17.5458	-49.1037	44.8293
17.54752	-41.8147	44.8489
17.5504	-52.4298	44.8684
17.5498	-50.4992	44.8879
17.55282	-42.5562	44.9075
17.554	-49.0306	44.927
17.5566	-53.6	44.9465
17.5568	-38.6995	44.9661
17.5591	-46.7193	44.9856
17.5607	-54.4118	45.0051
17.5618	-47.9623	45.0247
17.5639	-42.3774	45.0442
17.5661	-55.5169	45.0637
17.5665	-45.879	45.0833
17.5685	-41.3548	45.1028
17.5707	-52.51424	45.1223
17.5715	-50.5587	45.1418
17.5738	-40.294	45.1614
17.5755	-51.9973	45.1809
17.5786	-49.81921	45.2004
17.5794	-39.4978	45.22
17.5797	-47.135	45.2395
17.5822	-56.77887	45.259
17.5843	-40.368	45.2786
17.5858	-45.0951	45.2981
17.58754	-54.3551	45.3176
17.58843	-44.1035	45.3372
17.5907	-44.6855	45.3567
17.5919	-55.4192	45.3762
17.5935	-44.167	45.3958
17.594	-39.6561	45.4153
17.596	-50.7237	45.425