Folder: Stress_Strain_Analysis_Tools/data/processed_data_files/tensile (part 46)

File: 0.254_solid_uprint_typei_4545_r(2).dat
MTS793|BTW|ENU|1|2|.|/|:|1|0|0|A

Data Header:			0.254_solid_uprint_typei_4545_r0			Time:	20.0181	s	4/14/2019 4:20:54 AM
Data Acquisition:	Timed
Station Name:	ft40.cfg
Test File Name:	monotonic_0.2540_typei_solid_4545_uprint.tst
Displacement	Force	Running Time
mm	N	s
9.95688	-140.096	0.0231934
9.95704	-138.642	0.0915527
9.96223	-130.742	0.159912
9.96894	-120.797	0.228271
9.97457	-118.226	0.296631
9.97919	-113.884	0.36499
9.98439	-110.998	0.43335
9.9909	-109.664	0.501709
9.99695	-115.102	0.570068
10.0023	-115.411	0.638428
10.0083	-113.6614	0.706787
10.0141	-111.412	0.775146
10.0194	-105.175	0.843506
10.0259	-96.1758	0.911865
10.0311	-91.2252	0.980225
10.0359	-86.703	1.048584
10.0424	-76.7383	1.11694
10.0478	-76.38353	1.1853
10.0536	-80.186	1.25366
10.0583	-79.7879	1.32202
10.0647	-80.7615	1.39038
10.0705	-79.3362	1.45874
10.0768	-74.7435	1.5271
10.0827	-67.8899	1.595459
10.0877	-61.9112	1.66382
10.0931	-53.7072	1.73218
10.0997	-43.9941	1.80054
10.1055	-42.6522	1.8689
10.1114	-41.6917	1.93726
10.1171	-41.4472	2.00562
10.123	-45.4784	2.07397
10.1275	-42.6212	2.142334
10.1331	-41.2864	2.21069
10.1393	-37.4889	2.27905
10.14428	-30.9847	2.34741
10.1506	-23.4656	2.41577
10.1567	-12.1963	2.48413
10.1617	-8.44807	2.55249
10.1669	-5.67388	2.62085
10.1725	-5.62534	2.689209
10.1791	-7.21652	2.75757
10.1838	-6.32405	2.82593
10.1902	-7.71634	2.89429
10.1959	-5.2071	2.96265
10.2007	-0.314663	3.03101
10.2076	10.6792	3.09937
10.2137	19.3157	3.16772
10.2187	24.6412	3.236084
10.2244	30.9376	3.30444
10.2297	30.72472	3.3728
10.2356	33.0039	3.44116
10.2413	31.4411	3.50952
10.2477	29.4653	3.57788
10.2531	29.6256	3.64624
10.2586	34.1043	3.7146
10.2646	43.4318	3.782959
10.2696	49.7498	3.85132
10.2752	57.2664	3.91968
10.2812	64.9599	3.98804
10.2879	66.6332	4.0564
10.2932	70.1794	4.12476
10.29737	71.582	4.19312
10.3044	66.0297	4.26147
10.31015	64.9356	4.329834
10.3159	69.2961	4.39819
10.3208	75.338	4.46655
10.3272	81.6652	4.53491
10.33294	91.163	4.60327
10.33725	100.342	4.67163
10.3449	103.338	4.73999
10.3501	109.812	4.80835
10.356	111.063	4.876709
10.36127	104.419	4.94507
10.3678	103.042	5.01343
10.3712	106.283	5.08179
10.3785	110.002	5.15015
10.3837	113.824	5.21851
10.3891	122.746	5.28687
10.39508	134.1196	5.35522
10.4008	137.7612	5.423584
10.4072	146.397	5.49194
10.4113	150.221	5.5603
10.4187	144.758	5.62866
10.4246	141.194	5.69702
10.43	144.851	5.76538
10.435	145.805	5.83374
10.4391	146.707	5.9021
10.4458	155.6342	5.970459
10.4528	164.211	6.03882
10.4575	170.897	6.10718
10.464	180.9276	6.17554
10.4697	185.646	6.2439
10.4756	184.352	6.31226
10.4808	182.597	6.38062
10.4862	185.424	6.44897
10.4922	180.539	6.517334
10.4978	180.227	6.58569
10.5038	187.9543	6.65405
10.5102	195.249	6.72241
10.5141	204.03	6.79077
10.5207	216.497	6.85913
10.526	221.451	6.92749
10.5322	219.225	6.99585
10.5379	221.0085	7.064209
10.5441	222.897	7.13257
10.5492	218.612	7.20093
10.5552	218.031	7.26929
10.561	223.033	7.33765
10.5664	227.19	7.40601
10.5717	235.303	7.47437
10.5774	247.326	7.54272
10.5831	254.381	7.611084
10.5883	255.464	7.67944
10.5939	258.022	7.7478
10.6001	262.588	7.81616
10.6059	256.747	7.88452
10.6111	255.662	7.95288
10.6185	257.474	8.02124
10.6225	260.4	8.0896
10.6279	268.474	8.157959
10.6337	276.828	8.22632
10.6393	285.196	8.29468
10.6457	289.198	8.36304
10.6513	296.138	8.4314
10.6569	298.692	8.49976
10.6629	295.429	8.56812
10.668	292.236	8.63647
10.6744	291.523	8.704834
10.6797	295.425	8.77319
10.6857	300.29	8.84155
10.6908	306.27	8.90991
10.6974	314.323	8.97827
10.7031	321.925	9.04663
10.7084	332.308	9.11499
10.7143	335.886	9.18335
10.7194	333.494	9.251709
10.7258	332.842	9.32007
10.7313	331.807	9.38843
10.7369	331.773	9.45679
10.7428	332.606	9.52515
10.7484	336.874	9.59351
10.7532	342.311	9.66187
10.7599	351.676	9.73022
10.767	362.196	9.798584
10.7708	369.643	9.86694
10.7769	372.907	9.9353
10.7823	372.31	10.0037
10.7878	369.512	10.072
10.7937	370.045	10.1404
10.8	368.372	10.20874
10.805	368.6738	10.2771
10.8106	371.467	10.3455
10.8153	383.79	10.4138
10.82333	392.7272	10.4822
10.8283	400.126	10.5505
10.8338	407.124	10.6189
10.83885	408.761	10.6873
10.8452	408.763	10.7556
10.8516	407.289	10.824
10.8567	404.166	10.8923
10.8627	400.638	10.9607
10.86692	402.218	11.0291
10.8734	412.702	11.0974
10.8795	421.805	11.1658
10.8849	430.5	11.2341
10.8904	439.354	11.30249
10.8966	444.403	11.37085
10.902	444.393	11.4392
10.9069	445.577	11.5076
10.9125	443.5	11.5759
10.91924	436.63	11.6443
10.9247	438.737	11.7126
10.9311	443.829	11.781
10.936	449.372	11.8494
10.9418	457.687	11.9177
10.9464	469.9252	11.9861
10.9529	477.185	12.0544
10.9589	480.348	12.1228
10.9643	483.076	12.1912
10.9708	480.43	12.2595
10.9767	473.648	12.3279
10.9816	470.299	12.39624
10.9878	475.102	12.4646
10.9926	477.804	12.533
10.9997	485.547	12.6013
11.0048	497.191	12.6697
11.0102	505.243	12.738
11.0145	512.263	12.8064
11.0216	518.326	12.8748
11.0268	515.941	12.9431
11.0336	508.826	13.0115
11.0381	506.761	13.0798
11.0442	509.764	13.1482
11.0501	509.394	13.2166
11.056	512.93	13.2849
11.06096	527.075	13.3533
11.0672	534.166	13.4216
11.0721	544.078	13.48999
11.0784	551.265	13.55835
11.0844	551.491	13.6267
11.08981	546.351	13.6951
11.0961	544.188	13.7634
11.102	542.29	13.8318
11.1064	540.926	13.9001
11.1126	541.679	13.9685
11.1177	551.858	14.0369
11.1245	558.581	14.1052
11.1294	570.766	14.1736
11.1356	579.493	14.2419
11.1415	582.4726	14.3103
11.1467	579.74	14.3787
11.1532	577.776	14.447
11.1584	577.579	14.5154
11.1635	573.293	14.58374
11.17047	571.841	14.6521
11.1752	578.638	14.7205
11.1808	586.431	14.7888
11.1855	596.691	14.8572
11.1916	607.168	14.9255
11.1978	611.67	14.9939
11.2034	611.952	15.0623
11.2096	615.258	15.1306
11.214	611.91	15.199
11.2205	607.32	15.2673
11.2271	604.075	15.3357
11.2324	605.507	15.4041
11.2376	612.743	15.4724
11.2429	624.686	15.5408
11.2486	634.763	15.6091
11.2546	638.791	15.67749
11.2612	645.317	15.74585
11.26546	648.335	15.8142
11.2718	645.53	15.8826
11.2784	641.078	15.9509
11.2836	635.899	16.0193
11.2897	635.089	16.0876
11.2951	640.9317	16.156
11.301	647.799	16.2244
11.3069	656.015	16.2927
11.3122	663.42	16.3611
11.3189	672.083	16.4294
11.3234	678.647	16.4978
11.328	676.436	16.5662
11.3346	674.076	16.6345
11.3391	669.468	16.7029
11.3463	664.827	16.77124
11.3506	670.8158	16.8396
11.3568	674.48	16.908
11.3624	678.361	16.9763
11.3689	688.3457	17.0447
11.3743	698.497	17.113
11.3803	706.036	17.1814
11.386	707.256	17.2498
11.3916	706.235	17.3181
11.3974	703.224	17.3865
11.4028	695.826	17.4548
11.4089	696.605	17.5232
11.41411	699.8028	17.5916
11.4197	703.875	17.6599
11.42486	710.391	17.7283
11.4311	723.731	17.7966
11.4356	732.5191	17.86499
11.4425	734.249	17.93335
11.4486	737.049	18.0017
11.4541	735.172	18.0701
11.45972	727.663	18.1384
11.466	727.403	18.2068
11.47077	727.082	18.2751
11.4774	728.582	18.3435
11.4837	733.773	18.4119
11.4876	745.224	18.4802
11.4937	753.308	18.5486
11.4996	760.035	18.6169
11.5052	765.768	18.6853
11.5106	765.249	18.7537
11.517	759.623	18.822
11.5223	757.522	18.8904
11.5285	754.914	18.95874
11.5341	752.02	19.0271
11.5402	755.506	19.0955
11.5461	767.8584	19.1638
11.55121	776.197	19.2322
11.5572	782.013	19.3005
11.5628	789.475	19.3689
11.56848	790.724	19.4373
11.57299	788.238	19.5056
11.581	786.943	19.574
11.5852	784.061	19.6423
11.59042	777.546	19.7107
11.5974	778.695	19.7791
11.60275	789.25	19.8474
11.6073	795.134	19.9158
[...]
14.9665	-38.8138	60.2283
14.9675	-33.4504	60.238
14.9676	-32.0984	60.2478
14.9692	-39.8183	60.2576
14.9698	-47.8685	60.2673
14.9708	-47.90646	60.2771
14.9716	-40.1053	60.2869
14.9721	-32.08313	60.2966
14.9727	-34.2592	60.3064
14.9741	-37.4882	60.3162
14.975	-46.5149	60.3259
14.976	-45.77684	60.3357
14.9763	-40.7658	60.3455
14.9761	-38.9953	60.3552
14.97828	-30.9725	60.36499
14.9787	-34.434	60.3748
14.9795	-44.0051	60.3845
14.9803	-46.2694	60.3943
14.9812	-47.5564	60.4041
14.9818	-37.0586	60.4138
14.9834	-33.3628	60.4236
14.9842	-35.3877	60.43335
14.9849	-38.9161	60.4431
14.9858	-43.8378	60.4529
14.9866	-46.0843	60.4626
14.9875	-44.21706	60.4724
14.9869	-37.5404	60.4822
14.9891	-31.0364	60.4919
14.9899	-35.732	60.5017
14.99	-44.1325	60.5115
14.9911	-48.2	60.52124
14.99159	-44.9913	60.531
14.9929	-39.2898	60.5408
14.9928	-35.2244	60.5505
14.9943	-33.3764	60.5603
14.9957	-36.6308	60.5701
14.9956	-45.605	60.5798
14.9966	-47.7603	60.5896
14.9974	-42.3881	60.5994
14.9993	-35.8573	60.6091
14.9985	-29.8557	60.6189
15.0003	-37.7135	60.6287
15.0016	-44.1066	60.6384
15.0019	-47.654	60.6482
15.0019	-45.3206	60.658
15.004	-37.4169	60.6677
15.0034	-31.171	60.67749
15.0063	-33.6227	60.6873
15.0063	-40.6534	60.697
15.0073	-48.2096	60.7068
15.0075	-47.8962	60.7166
15.0078	-39.8702	60.7263
15.0089	-32.7073	60.7361
15.0095	-29.3233	60.74585
15.0116	-39.8249	60.7556
15.0123	-45.0786	60.7654
15.0125	-47.204	60.7751
15.01319	-45.8415	60.7849
15.0149	-34.56329	60.7947
15.0143	-32.0435	60.8044
15.0164	-34.8265	60.8142
15.0164	-40.94	60.824
15.0168	-50.3189	60.83374
15.0177	-45.5679	60.8435
15.0192	-37.3096	60.8533
15.0195	-31.1216	60.863
15.0206	-33.9052	60.8728
15.02179	-43.331	60.8826
15.0216	-47.60487	60.8923
15.0238	-46.5268	60.9021
15.0242	-40.2005	60.9119
15.0244	-33.6498	60.9216
15.0256	-33.3934	60.9314
15.0264	-37.7177	60.9412
15.0254	-46.7436	60.9509
15.0275	-49.286	60.9607
15.0281	-45.0088	60.9705
15.0295	-35.241	60.9802
15.0303	-32.1237	60.98999
15.0312	-37.0938	60.9998
15.032	-43.3145	61.0095
15.0323	-45.3901	61.0193
15.034	-45.9092	61.0291
15.0353	-42.3532	61.0388
15.0353	-32.8454	61.0486
15.0356	-33.1389	61.05835
15.0359	-39.865	61.0681
15.038	-45.8866	61.0779
15.0381	-48.1402	61.0876
15.0403	-41.0528	61.0974
15.04025	-34.9929	61.1072
15.0411	-35.771	61.1169
15.0424	-38.1932	61.1267
15.0422	-44.1676	61.1365
15.0433	-45.9191	61.14624
15.04512	-45.9145	61.156
15.0445	-40.6928	61.1658
15.0454	-31.2953	61.1755
15.0461	-33.9577	61.1853
15.0473	-39.2528	61.1951
15.0479	-47.182	61.2048
15.04868	-47.2201	61.2146
15.05	-40.7407	61.2244
15.0497	-37.1873	61.2341
15.0509	-32.5216	61.2439
15.0519	-37.0905	61.2537
15.0528	-43.4823	61.2634
15.0535	-48.7613	61.2732
15.0549	-46.5342	61.283
15.0552	-37.786	61.2927
15.0564	-30.08419	61.30249
15.0571	-34.7568	61.3123
15.05795	-43.5931	61.322
15.0586	-49.0256	61.3318
15.05951	-47.7502	61.3416
15.06	-41.6774	61.3513
15.0608	-34.7123	61.3611
15.061	-32.5688	61.37085
15.0635	-37.9367	61.3806
15.0646	-46.7896	61.3904
15.0642	-49.0499	61.4001
15.0648	-44.5141	61.4099
15.0663	-34.9813	61.4197
15.0663	-30.6787	61.4294
15.0675	-35.8911	61.4392
15.0691	-44.2909	61.449
15.0683	-48.349	61.45874
15.07078	-46.2527	61.4685
15.0714	-37.0951	61.4783
15.0719	-34.8526	61.488
15.0721	-32.2287	61.4978
15.0737	-39.3021	61.5076
15.0744	-48.86	61.5173
15.07463	-47.5843	61.5271
15.0759	-41.1449	61.5369
15.0768	-31.5042	61.5466
15.0766	-33.1014	61.5564
15.0779	-40.0185	61.5662
15.0786	-43.8891	61.5759
15.08	-47.8421	61.5857
15.0811	-44.0153	61.5955
15.0816	-37.9549	61.6052
15.0827	-33.065	61.61499
15.08379	-34.7097	61.6248
15.0848	-43.3643	61.6345
15.0851	-47.6458	61.6443
15.0857	-44.6441	61.6541

File: 0.254_solid_uprint_typei_4545_r(3).dat
MTS793|BTW|ENU|1|2|.|/|:|1|0|0|A

Data Header:			0.254_solid_uprint_typei_4545_r0			Time:	20.0173	s	4/14/2019 4:23:10 AM
Data Acquisition:	Timed
Station Name:	ft40.cfg
Test File Name:	monotonic_0.2540_typei_solid_4545_uprint.tst
Displacement	Force	Running Time
mm	N	s
9.95707	-134.261	0.0224609
9.9578	-129.733	0.0908203
9.96372	-122.4855	0.15918
9.9691	-122.749	0.227539
9.97498	-120.954	0.295898
9.9808	-117.894	0.364258
9.986455	-121.1539	0.432617
9.99236	-119.773	0.500977
9.99743	-117.357	0.569336
10.0038	-114.657	0.637695
10.0094	-111.877	0.706055
10.0156	-102.4781	0.774414
10.02002	-90.8285	0.842773
10.0265	-90.3684	0.911133
10.0315	-86.0327	0.979492
10.0379	-80.9962	1.04785
10.0432	-86.9574	1.11621
10.0486	-85.9709	1.18457
10.0548	-82.5829	1.25293
10.0606	-83.6993	1.32129
10.066	-79.2244	1.38965
10.0709	-68.4382	1.45801
10.0778	-59.6596	1.52637
10.0839	-55.5501	1.59473
10.0887	-49.7474	1.66309
10.0948	-45.9726	1.73145
10.1008	-46.9128	1.7998
10.1061	-48.3662	1.86816
10.1123	-47.7756	1.93652
10.1159	-49.0271	2.00488
10.1231	-46.5187	2.07324
10.1284	-35.31	2.1416
10.1336	-27.9821	2.20996
10.1401	-23.4643	2.27832
10.1472	-16.1835	2.34668
10.1516	-11.8858	2.41504
10.1561	-11.20276	2.4834
10.1629	-9.6064	2.55176
10.16855	-11.5414	2.62012
10.174	-12.7838	2.68848
10.1795	-11.5298	2.75684
10.1859	-1.64267	2.8252
10.1914	4.380147	2.89355
10.1974	11.4922	2.96191
10.2014	18.4714	3.03027
10.2086	23.5479	3.09863
10.2136	27.2523	3.16699
10.2195	28.3344	3.23535
10.2255	28.368	3.30371
10.2311	24.4081	3.37207
10.2374	25.585	3.44043
10.242	31.5232	3.50879
10.2479	37.0674	3.57715
10.2538	43.4904	3.64551
10.259	52.24334	3.71387
10.2654	57.719	3.78223
10.27	65.2696	3.85059
10.2757	67.61763	3.91895
10.2823	64.5213	3.9873
10.2886	63.6214	4.05566
10.2925	63.8354	4.12402
10.2997	67.0131	4.19238
10.3048	69.89286	4.26074
10.3111	76.9525	4.3291
10.3163	84.9484	4.39746
10.3222	91.81501	4.46582
10.327	101.392	4.53418
10.3328	102.6436	4.60254
10.3381	102.118	4.6709
10.34527	101.022	4.73926
10.3497	102.662	4.80762
10.3559	104.732	4.87598
10.3616	104.067	4.94434
10.3677	114.043	5.0127
10.3734	118.87	5.08105
10.3783	125.866	5.14941
10.3843	134.458	5.21777
10.3901	139.3979	5.28613
10.3954	139.7803	5.35449
10.40247	141.328	5.42285
10.408	143.642	5.49121
10.4124	142.317	5.55957
10.4184	141.754	5.62793
10.4253	148.3494	5.69629
10.4297	152.17	5.76465
10.4356	158.179	5.83301
10.4412	168.945	5.90137
10.4476	175.0215	5.96973
10.4535	174.914	6.03809
10.45794	179.381	6.10645
10.46357	184.495	6.1748
10.4698	180.417	6.24316
10.4758	179.381	6.31152
10.4818	185.162	6.37988
10.4867	187.7764	6.44824
10.4918	191.3546	6.5166
10.4984	201.846	6.58496
10.50383	210	6.65332
10.5102	211.553	6.72168
10.5159	215.934	6.79004
10.52059	223.363	6.8584
10.5266	219.646	6.92676
10.5332	218.315	6.99512
10.5388	221.462	7.06348
10.5437	222.063	7.13184
10.5499	226.448	7.2002
10.5556	236.414	7.26855
10.5611	241.648	7.33691
10.5674	246.575	7.40527
10.5728	249.99	7.47363
10.5782	259.508	7.54199
10.5838	258.051	7.61035
10.5904	257.615	7.67871
10.5957	258.545	7.74707
10.6003	260.058	7.81543
10.6077	261.6329	7.88379
10.6124	269.085	7.95215
10.6176	274.941	8.02051
10.62329	279.253	8.08887
10.62968	286.577	8.15723
10.6354	296.402	8.22559
10.6411	295.987	8.29395
10.6467	293.773	8.3623
10.6519	297.478	8.43066
10.6596	295.4393	8.49902
10.6644	297.8826	8.56738
10.66933	301.587	8.63574
10.675	307.553	8.7041
10.68	312.067	8.77246
10.6863	320.144	8.84082
10.6912	330.438	8.90918
10.6977	334.78	8.97754
10.7025	335.467	9.0459
10.7093	335.549	9.11426
10.7151	333.443	9.18262
10.7211	334.822	9.25098
10.7262	334.704	9.31934
10.732	336.868	9.3877
10.7379	343.932	9.45605
10.7433	352.474	9.52441
10.7496	362.298	9.59277
10.755	367.492	9.66113
10.7609	372.35	9.72949
10.7665	373.018	9.79785
10.7723	370.081	9.86621
10.778	372.3429	9.93457
10.783	369.044	10.00293
10.78954	369.037	10.0713
10.7952	376.576	10.1396
10.8002	384.016	10.208
10.8056	393.505	10.2764
10.8125	400.176	10.3447
10.8174	408.659	10.4131
10.8226	408.8219	10.4814
10.8284	408.238	10.5498
10.8347	408.577	10.6182
10.8399	407.0191	10.6865
10.8456	402.965	10.7549
10.8514	408.89	10.8232
10.8584	416.783	10.8916
10.8626	423.041	10.96
10.8693	433.662	11.02832
10.8739	442.122	11.09668
10.8801	442.683	11.165
10.8858	446.134	11.2334
10.89096	445.596	11.3018
10.8972	442.158	11.3701
10.90231	438.708	11.4385
10.9085	439.733	11.5068
10.9147	450.021	11.5752
10.9201	452.975	11.6436
10.9257	462.357	11.7119
10.9316	472.7	11.7803
10.9377	476.982	11.8486
10.9426	481.621	11.917
10.9488	483.066	11.9854
10.9544	480.656	12.0537
10.9599	474.695	12.12207
10.9649	476.014	12.19043
10.9706	481.683	12.2588
10.97753	483.73	12.3271
10.9824	491.349	12.3955
10.9901	502.583	12.4639
10.9941	507.914	12.5322
11.0004	514.842	12.6006
11.0055	517.71	12.6689
11.0113	515.771	12.7373
11.0173	509.278	12.8057
11.0232	511.718	12.874
11.0288	513.927	12.9424
11.0341	514.435	13.0107
11.0401	519.552	13.0791
11.04545	529.375	13.1475
11.0505	536.562	13.21582
11.0572	545.731	13.28418
11.0622	552.455	13.3525
11.069	549.819	13.4209
11.07238	545.647	13.4893
11.0805	546.9339	13.5576
11.0854	548.483	13.626
11.0911	546.36	13.6943
11.09729	550.935	13.7627
11.1023	559.222	13.8311
11.108	566.695	13.8994
11.1143	575.798	13.9678
11.1195	582.924	14.0361
11.1252	581.911	14.1045
11.13021	581.451	14.1729
11.137	584.17	14.2412
11.1417	582.554	14.30957
11.1478	578.917	14.37793
11.1536	580.681	14.4463
11.1596	585.125	14.5146
11.1662	594.204	14.583
11.1711	601.819	14.6514
11.1777	610.2251	14.7197
11.1815	611.795	14.7881
11.1879	614.159	14.8564
11.1933	617.3233	14.9248
11.1984	616.368	14.9932
11.2054	612.531	15.0615
11.2109	611.86	15.1299
11.2162	617.105	15.1982
11.2225	623.78	15.2666
11.2273	629.341	15.335
11.2345	638.444	15.40332
11.2385	642.561	15.47168
11.2445	645.459	15.54
11.2516	649.811	15.6084
11.2574	647.99	15.6768
11.2625	646.054	15.7451
11.2679	643.261	15.8135
11.27355	643.26	15.8818
11.2793	651.01	15.9502
11.2848	657.317	16.0186
11.291	662.445	16.0869
11.2962	670.214	16.1553
11.3022	677.221	16.2236
11.3085	681.712	16.292
11.3133	679.733	16.3604
11.32	678.816	16.4287
11.3241	677.08	16.49707
11.3319	675.203	16.56543
11.3371	679.804	16.6338
11.3421	684.653	16.7021
11.348	689.117	16.7705
11.3528	695.849	16.8389
11.3594	704.319	16.9072
11.3648	711.427	16.9756
11.3701	710.36	17.0439
11.3757	711.528	17.1123
11.3822	708.897	17.1807
11.3872	705.549	17.249
11.3926	708.685	17.3174
11.3987	711.506	17.3857
11.403	712.426	17.4541
11.4104	720.447	17.5225
11.41604	731.445	17.59082
11.4213	738.258	17.65918
11.4276	739.877	17.7275
11.4333	743.455	17.7959
11.4382	742.775	17.8643
11.446	736.737	17.9326
11.4497	737.9115	18.001
11.45615	738.555	18.0693
11.4613	740.4118	18.1377
11.4666	743.704	18.2061
11.4731	757.55	18.2744
11.4779	763.798	18.3428
11.484	766.02	18.4111
11.49	771.585	18.4795
11.4946	772.089	18.5479
11.501	766.944	18.6162
11.5071	766.7832	18.68457
11.5125	767.789	18.75293
11.5192	765.987	18.8213
11.5239	768.331	18.8896
11.5296	779.656	18.958
11.5355	788.513	19.0264
11.5413	791.303	19.0947
11.54662	798.951	19.1631
11.5522	800.146	19.2314
11.5586	796.712	19.2998
11.5638	797.346	19.3682
11.56959	796.111	19.4365
11.575	792.896	19.5049
11.5805	792.424	19.5732
11.5867	804.438	19.6416
11.5922	809.491	19.71
11.5976	814.752	19.77832
11.6039	823.011	19.84668
11.6091	825.814	19.915
11.6141	825.513	19.9834
[...]
16.7853	1035.85	81.9854
16.7865	1010.69	82.0146
16.7884	1035.57	82.0439
16.7906	1008.78	82.0732
16.7943	1033.4	82.1025
16.79611	1012.235	82.1318
16.7994	1031.61	82.1611
16.8009	1017.68	82.19043
16.8032	1027.86	82.2197
16.8059	1019.83	82.249
16.809	1021.65	82.27832
16.811	1027.2	82.3076
16.8139	1019.21	82.3369
16.8157	1029.69	82.3662
16.8177	1012.68	82.3955
16.8206	1035.07	82.4248
16.8237	1011.23	82.4541
16.8263	1033.26	82.4834
16.8274	1011.41	82.5127
16.83	1036.057	82.542
16.83309	1010.67	82.5713
16.8352	1028.35	82.6006
16.8376	1013.79	82.6299
16.8395	1028.34	82.65918
16.843	1017.45	82.6885
16.84486	1021.93	82.7178
16.8485	1024.56	82.74707
16.8507	1018.6	82.7764
16.8527	1025.62	82.8057
16.85474	1010.74	82.835
16.8575	1031.881	82.8643
16.8593	1009.89	82.8936
16.8618	1033.99	82.9229
16.8638	1008.759	82.9521
16.86739	1035.06	82.9814
16.8699	1007.16	83.0107
16.8714	1032.42	83.04
16.8741	1013.72	83.0693
16.8766	1030.04	83.0986
16.8791	1016.45	83.12793
16.8803	1026.37	83.1572
16.8844	1020.21	83.1865
16.8867	1018.37	83.21582
16.8899	1026.08	83.2451
16.8913	1015.91	83.2744
16.8939	1030.42	83.3037
16.8963	1007.05	83.333
16.8998	1031.87	83.3623
16.9009	1008.51	83.3916
16.9034	1033.12	83.4209
16.907	1005.65	83.4502
16.9081	1035.29	83.4795
16.9108	1008.63	83.5088
16.9133	1029.31	83.5381
16.916	1007.97	83.5674
16.918	1027.46	83.59668
16.9209	1016.6	83.626
16.9227	1021.22	83.6553
16.9261	1018.81	83.68457
16.9287	1015.89	83.7139
16.931	1022.89	83.7432
16.93161	1010.33	83.7725
16.9351	1026.92	83.8018
16.938	1006.04	83.8311
16.9394	1028.7	83.8604
16.9432	1003.22	83.8896
16.9448	1028.79	83.9189
16.9474	1001.11	83.9482
16.9504	1026.67	83.9775
16.9523	1004.09	84.0068
16.955	1024.697	84.0361
16.9569	1005.8	84.06543
16.9589	1016.28	84.0947
16.96286	1009.7	84.124
16.9653	1010.76	84.15332
16.968	1011.51	84.1826
16.9702	1003.321	84.2119
16.9723	1018.01	84.2412
16.9739	996.023	84.2705
16.977	1012.645	84.2998
16.9792	992.261	84.3291
16.98238	1016.22	84.3584
16.98394	989.064	84.3877
16.9862	1007.48	84.417
16.98933	986.603	84.4463
16.9915	1001.35	84.4756
17.002	21.6247	84.5049
17.0011	-41.0005	84.53418
17.0024	-35.51152	84.5635
17.00316	-43.45863	84.5928
17.0052	-32.6677	84.62207
17.0075	-49.14954	84.6514
17.0103	-27.4528	84.6807
17.0119	-50.0885	84.71
17.0145	-26.5718	84.7393
17.0174	-52.4297	84.7686
17.0196	-26.1769	84.7979
17.0222	-53.58461	84.8271
17.0239	-27.9844	84.8564
17.0268	-47.5575	84.8857
17.0288	-31.3118	84.915
17.0321	-44.7304	84.9443
17.0339	-33.67654	84.9736
17.0361	-40.4776	85.00293
17.0385	-40.39119	85.0322
17.0402	-38.24622	85.0615
17.0449	-40.7327	85.09082
17.0456	-31.6847	85.1201
17.04854	-50.6077	85.1494
17.0511	-28.8803	85.1787
17.0526	-48.37088	85.208
17.05492	-27.3798	85.2373
17.0583	-54.7069	85.2666
17.06045	-24.0011	85.2959
17.06221	-49.8535	85.3252
17.0647	-28.7518	85.3545
17.0678	-51.9617	85.3838
17.0698	-30.7281	85.4131
17.0729	-46.07962	85.4424
17.0741	-35.4879	85.47168
17.07683	-43.3538	85.501
17.08	-38.904	85.5303
17.0819	-37.7594	85.55957
17.0852	-46.6123	85.5889
17.08732	-34.6724	85.6182
17.0887	-47.1942	85.6475
17.0924	-28.1135	85.6768
17.0947	-51.13604	85.7061
17.0971	-26.9975	85.7354
17.0993	-52.50869	85.7646
17.1011	-28.8507	85.7939
17.1039	-49.9188	85.8232
17.1073	-26.8154	85.8525
17.1091	-49.3219	85.8818
17.1116	-32.5592	85.9111
17.1146	-43.9107	85.94043
17.1161	-38.221	85.9697
17.1181	-40.9743	85.999
17.1218	-41.0254	86.02832
17.1234	-34.5974	86.0576
17.125	-44.7526	86.0869
17.1286	-34.8084	86.1162
17.1314	-51.1793	86.1455
17.1339	-27.3984	86.1748
17.1359	-49.8593	86.2041
17.13884	-28.3441	86.2334
17.1409	-49.2419	86.2627
17.1431	-28.0587	86.292
17.1436	-28.58791	86.3018