Folder: Stress_Strain_Analysis_Tools/data/processed_data_files/tensile (part 41)

File: 0.254_solid_dimension_typeiv_4545_r(3).dat
MTS793|BTW|ENU|1|2|.|/|:|1|0|0|A

Data Header:			0.254_solid_dimension_typeiv_4545_r0			Time:	20.0173	s	4/13/2019 8:38:08 PM
Data Acquisition:	Timed
Station Name:	ft40.cfg
Test File Name:	monotonic_0.2540_typeiv_solid_4545_dimension.tst
Displacement	Force	Running Time
mm	N	s
-40.0343	-233.883	0.0222168
-40.0315	-231.592	0.0905762
-40.0263	-229.871	0.158936
-40.0201	-223.965	0.227295
-40.0166	-222.373	0.2956543
-40.0077	-215.004	0.364014
-40.0023	-208.9288	0.432373
-39.9967	-203.998	0.500732
-39.9915	-199.799	0.5690918
-39.9861	-195.95	0.637451
-39.9807	-195.981	0.705811
-39.9752	-191.364	0.77417
-39.9704	-187.691	0.8425293
-39.9632	-187.719	0.910889
-39.9572	-184.621	0.979248
-39.95118	-178.445	1.04761
-39.9455	-170.272	1.11597
-39.9409	-166.292	1.18433
-39.9346	-162.63	1.25269
-39.9298	-156.026	1.32104
-39.9227	-155.934	1.3894
-39.9176	-150.148	1.45776
-39.912	-146.334	1.526123
-39.9057	-147.205	1.59448
-39.9002	-146.033	1.66284
-39.8949	-139.688	1.7312
-39.8894	-130.657	1.79956
-39.8839	-128.787	1.86792
-39.8775	-122.647	1.93628
-39.8723	-117.336	2.00464
-39.8669	-114.091	2.072998
-39.8611	-112.4257	2.14136
-39.8559	-107.211	2.20972
-39.8493	-106.915	2.27808
-39.8445	-107.425	2.34644
-39.83844	-101.49	2.41479
-39.8327	-93.2153	2.48315
-39.8271	-90.154	2.55151
-39.821	-85.28611	2.619873
-39.8158	-75.9297	2.68823
-39.8083	-74.6201	2.75659
-39.8033	-70.1972	2.82495
-39.7984	-67.5896	2.89331
-39.7918	-66.764	2.96167
-39.7866	-66.5815	3.03003
-39.7813	-62.7611	3.09839
-39.7751	-53.8684	3.166748
-39.7708	-49.8527	3.23511
-39.7633	-45.834	3.30347
-39.7585	-37.658	3.37183
-39.752	-34.7689	3.44019
-39.7469	-31.5221	3.50854
-39.741	-27.7848	3.5769
-39.7363	-27.9673	3.64526
-39.7292	-24.7778	3.713623
-39.7248	-21.8281	3.78198
-39.71793	-15.9445	3.85034
-39.7126	-12.6346	3.9187
-39.7068	-5.94439	3.98706
-39.7012	-1.84976	4.05542
-39.6959	3.42939	4.12378
-39.6902	9.69295	4.19214
-39.68515	13.5744	4.260498
-39.6787	14.7882	4.32886
-39.6735	15.1757	4.39722
-39.6669	20.5191	4.46558
-39.6613	22.7674	4.53394
-39.657	26.38736	4.60229
-39.65	32.4332	4.67065
-39.6444	38.7363	4.73901
-39.63887	42.082	4.807373
-39.6339	50.0286	4.87573
-39.6281	54.2065	4.94409
-39.6216	54.5553	5.01245
-39.616	56.0164	5.08081
-39.6095	62.4958	5.14917
-39.6048	65.34404	5.21753
-39.59885	64.8277	5.28589
-39.5938	71.2703	5.354248
-39.5868	77.491	5.42261
-39.5822	79.9412	5.49097
-39.5761	87.33567	5.55933
-39.5711	93.8726	5.62769
-39.5654	94.8227	5.69604
-39.5585	96.94	5.7644
-39.55262	101.176	5.83276
-39.5479	104.95	5.901123
-39.5411	105.525	5.96948
-39.53648	110.102	6.03784
-39.5303	115.759	6.1062
-39.5256	120.025	6.17456
-39.5192	125.857	6.24292
-39.5135	132.7345	6.31128
-39.5073	134.7453	6.37964
-39.5012	134.834	6.447998
-39.4975	142.639	6.51636
-39.4897	146.525	6.58472
-39.48447	145.597	6.65308
-39.4795	149.545	6.72144
-39.4744	154.706	6.78979
-39.4676	157.837	6.85815
-39.4626	162.472	6.92651
-39.4563	168.873	6.994873
-39.4523	174.192	7.06323
-39.4456	176.083	7.13159
-39.4397	180.576	7.19995
-39.4343	185.546	7.26831
-39.4291	186.014	7.33667
-39.4235	188.602	7.40503
-39.4169	191.159	7.47339
-39.4123	197.7717	7.541748
-39.4068	202.2982	7.61011
-39.4005	207.102	7.67847
-39.3928	209.907	7.74683
-39.3882	214.363	7.81519
-39.3831	221.8963	7.88354
-39.3781	223.2522	7.9519
-39.372	224.543	8.02026
-39.3649	227.095	8.088623
-39.36124	228.458	8.15698
-39.354	234.136	8.22534
-39.3478	239.373	8.2937
-39.34314	242.781	8.36206
-39.337	245.451	8.43042
-39.3313	250.415	8.49878
-39.3262	259.281	8.56714
-39.3202	261.668	8.635498
-39.314	264.416	8.70386
-39.3076	266.525	8.77222
-39.3033	268.225	8.84058
-39.2976	269.532	8.90894
-39.292	274.44	8.97729
-39.2856	280.3544	9.04565
-39.2805	281.111	9.11401
-39.27475	288.142	9.182373
-39.2695	296.255	9.25073
-39.2632	297.993	9.31909
-39.2568	301.211	9.38745
-39.2509	306.176	9.45581
-39.24667	305.421	9.52417
-39.2422	307.062	9.59253
-39.2344	310.15	9.66089
-39.2294	316.436	9.729248
-39.2246	316.812	9.79761
-39.218	321.903	9.86597
-39.2121	331.66	9.93433
-39.2069	336.548	10.0027
-39.20026	337.689	10.071
-39.1945	342.3504	10.1394
-39.189	345.028	10.2078
-39.1834	346.29	10.2761
-39.178	346.824	10.3445
-39.1733	351.795	10.4128
-39.1663	352.693	10.4812
-39.1605	357.739	10.5496
-39.1562	366.28	10.61792
-39.148	372.007	10.6863
-39.1434	375.455	10.7546
-39.13768	378.5	10.823
-39.1322	378.895	10.8914
-39.1262	382.752	10.9597
-39.1219	384.45	11.0281
-39.1145	386.813	11.0964
-39.1105	388.481	11.1648
-39.1029	391.184	11.2332
-39.0976	400.451	11.3015
-39.0931	402.703	11.3699
-39.0878	408.736	11.4382
-39.0809	414.4646	11.5066
-39.0744	415.663	11.575
-39.0698	417.8873	11.6433
-39.0635	421.252	11.71167
-39.0583	421.014	11.78
-39.0523	422.6972	11.8484
-39.0463	424.828	11.9167
-39.0413	432.077	11.9851
-39.03545	436.738	12.0535
-39.0299	442.571	12.1218
-39.02494	447.2561	12.1902
-39.0182	449.32	12.2585
-39.0129	452.1615	12.3269
-39.0068	454.931	12.3953
-39.0015	454.026	12.4636
-38.9948	453.211	12.532
-38.99181	456.514	12.6003
-38.9851	462.968	12.6687
-38.9782	467.788	12.7371
-38.9727	470.292	12.80542
-38.9669	479.59	12.8738
-38.9617	480.962	12.9421
-38.9558	484.15	13.0105
-38.9506	486.207	13.0789
-38.9435	486.656	13.1472
-38.9392	484.1546	13.2156
-38.9344	487.08	13.2839
-38.9271	495.045	13.3523
-38.9214	494.691	13.4207
-38.9154	499.688	13.489
-38.9093	506.174	13.5574
-38.9045	510.053	13.6257
-38.8986	511.809	13.6941
-38.89188	514.992	13.7625
-38.8874	515.8537	13.8308
-38.8834	514.274	13.89917
-38.87561	514.979	13.9675
-38.8712	522.134	14.0359
-38.8635	523.418	14.1042
-38.8587	525.341	14.1726
-38.8538	532.695	14.241
-38.8482	535.998	14.3093
-38.8415	541.314	14.3777
-38.8362	542.791	14.446
-38.8304	543.12	14.5144
-38.824	541.202	14.5828
-38.8198	542.689	14.6511
-38.8134	545.647	14.7195
-38.8083	547.2912	14.7878
-38.8022	549.597	14.8562
-38.7966	554.328	14.9246
-38.79147	556.7301	14.99292
-38.7847	562.161	15.0613
-38.779	563.8028	15.1296
-38.7733	564.744	15.198
-38.7678	562.175	15.2664
-38.76173	563.134	15.3347
-38.7573	566.309	15.4031
-38.7508	567.287	15.4714
-38.74527	568.079	15.5398
-38.739	570.747	15.6082
-38.734	571.795	15.6765
-38.7291	577.926	15.7449
-38.7211	580.805	15.8132
-38.7159	580.665	15.8816
-38.7109	579.797	15.95
-38.7061	579.571	16.0183
-38.6985	581.875	16.08667
-38.6939	578.351	16.155
-38.688	579.854	16.2234
-38.6831	582.31	16.2917
-38.6768	581.557	16.3601
-38.67128	584.202	16.4285
-38.6661	590.383	16.4968
-38.66	588.5603	16.5652
-38.6541	584.954	16.6335
-38.6477	587.589	16.7019
-38.6421	588.971	16.7703
-38.6365	585.427	16.8386
-38.6308	584.732	16.907
-38.6251	585.343	16.9753
-38.6199	584.243	17.0437
-38.6151	586.85	17.1121
-38.6092	590.661	17.18042
-38.6037	589.932	17.2488
-38.5964	588.245	17.3171
-38.59074	589.28	17.3855
-38.5848	589.374	17.4539
-38.581	585.208	17.5222
-38.57399	585.709	17.5906
-38.5691	586.52	17.6589
-38.5637	584.138	17.7273
-38.5585	586.182	17.7957
-38.5516	587.27	17.864
-38.5464	587.103	17.9324
-38.5396	585.888	18.0007
-38.5358	587.83	18.0691
-38.529	588.298	18.1375
-38.52314	585.747	18.2058
-38.5177	582.976	18.27417
-38.5107	583.186	18.3425
-38.5063	579.4494	18.4109
-38.5009	580.5434	18.4792
-38.4946	581.243	18.5476
-38.4894	582.284	18.616
-38.4818	583.525	18.6843
-38.4771	584.582	18.7527
-38.4714	585.235	18.821
-38.4666	582.672	18.8894
-38.4594	581.597	18.9578
-38.4548	579.032	19.0261
[...]
-36.04641	545.405	47.9324
-36.0408	540.817	47.991
-36.0358	540.045	48.0496
-36.031	538.594	48.1082
-36.027	538.281	48.1667
-36.021	535.065	48.2253
-36.0164	536.382	48.2839
-36.0111	540.044	48.3425
-36.0062	535.307	48.4011
-36.0011	541.914	48.4597
-35.99712	540.288	48.5183
-35.9923	543.739	48.5769
-35.9856	542.357	48.6355
-35.9829	545.9126	48.6941
-35.9771	540.937	48.7527
-35.972	542.51	48.8113
-35.9679	540.014	48.8699
-35.9622	538.079	48.9285
-35.9576	537.943	48.9871
-35.9524	537.311	49.0457
-35.9484	536.564	49.1042
-35.943	537.49	49.1628
-35.9385	538.961	49.2214
-35.933	537.982	49.28
-35.9274	539.727	49.3386
-35.9227	541.494	49.3972
-35.9176	541.247	49.4558
-35.9137	541.805	49.5144
-35.9084	542.442	49.573
-35.9037	544.572	49.6316
-35.8989	541.987	49.6902
-35.89473	543.903	49.7488
-35.8897	540.0871	49.8074
-35.88364	542.157	49.866
-35.8791	537.511	49.9246
-35.87402	537.287	49.9832
-35.8708	534.42	50.0417
-35.86467	534.489	50.1003
-35.8602	535.902	50.1589
-35.85553	533.796	50.2175
-35.8496	537.977	50.2761
-35.8448	537.588	50.3347
-35.84	540.189	50.3933
-35.8344	539.0174	50.4519
-35.83033	543.812	50.5105
-35.8243	538.508	50.5691
-35.8212	541.308	50.6277
-35.8163	538.191	50.6863
-35.8102	538.207	50.7449
-35.806	535.0957	50.8035
-35.8017	535.313	50.8621
-35.7965	537.117	50.9207
-35.7917	534.176	50.9792
-35.78738	535.77	51.0378
-35.7816	533.0686	51.0964
-35.77631	534.9906	51.155
-35.772	536.214	51.2136
-35.7669	536.324	51.2722
-35.76189	538.899	51.3308
-35.7565	539.5	51.3894
-35.7522	541.2547	51.448
-35.7486	539.447	51.5066
-35.7429	541.9978	51.5652
-35.73801	537.4	51.6238
-35.7327	537.055	51.6824
-35.72842	536.113	51.741
-35.7233	535.093	51.7996
-35.7186	531.258	51.8582
-35.713	532.88	51.9167
-35.7081	532.586	51.9753
-35.704	529.703	52.0339
-35.69804	535.215	52.0925
-35.6943	530.497	52.1511
-35.6897	536.142	52.2097
-35.6837	533.777	52.2683
-35.6782	536.798	52.3269
-35.6734	533.92	52.3855
-35.6691	537.216	52.4441
-35.6648	534.938	52.5027
-35.65852	533.917	52.5613
-35.6543	534.153	52.6199
-35.6501	529.588	52.6785
-35.646	527.974	52.7371
-35.6409	525.601	52.7957
-35.6346	524.291	52.8542
-35.6303	519.726	52.9128
-35.6246	517.282	52.9714
-35.622	511.376	53.03
-35.6157	504.966	53.0886
-35.6075	-45.2101	53.1472
-35.60601	-40.62545	53.2058
-35.6004	-39.5926	53.2644
-35.5958	-38.663	53.323
-35.5904	-36.71582	53.3816
-35.5851	-41.4255	53.4402
-35.5814	-40.0114	53.4988
-35.5759	-41.4216	53.5574
-35.5718	-42.2529	53.616
-35.56712	-43.8148	53.6746
-35.5628	-45.0349	53.7332
-35.5572	-45.5913	53.7917
-35.5515	-48.4189	53.8503
-35.5466	-43.149	53.9089
-35.5428	-46.7027	53.9675
-35.53764	-43.0852	54.0261
-35.5322	-45.4541	54.0847
-35.5271	-41.5071	54.1433
-35.5221	-44.0651	54.2019
-35.5187	-39.4846	54.2605
-35.5124	-41.0741	54.3191
-35.5077	-39.5868	54.3777
-35.5035	-42.5262	54.4363
-35.4988	-41.0128	54.4949
-35.4932	-43.5708	54.5535
-35.4887	-44.0395	54.6121
-35.4829	-44.7649	54.6707
-35.4783	-46.1523	54.7292
-35.4729	-44.4707	54.7878
-35.4698	-45.075	54.8464
-35.4639	-43.6669	54.905
-35.45927	-42.4161	54.9636
-35.4541	-42.3627	55.0222
-35.4496	-41.5441	55.0808
-35.4448	-39.7699	55.1394
-35.44	-37.5867	55.198
-35.4345	-41.166	55.2566
-35.43	-39.2328	55.3152
-35.4251	-39.1636	55.3738
-35.4195	-41.7014	55.4324
-35.4145	-43.1789	55.491
-35.4107	-42.776	55.5496
-35.4057	-45.2271	55.6082
-35.40073	-47.7301	55.6667
-35.3969	-43.99567	55.7253
-35.3903	-48.1811	55.7839
-35.386	-43.7007	55.8425
-35.3807	-46.2728	55.9011
-35.3765	-41.1533	55.9597
-35.3714	-45.0589	56.0183
-35.3664	-38.7531	56.0769
-35.36063	-39.6503	56.1355
-35.3567	-39.6882	56.1941
-35.3527	-40.2986	56.2527
-35.3473	-39.7241	56.3113
-35.3426	-41.529	56.3699

File: 0.254_solid_dimension_typeiv_4545_r(4).dat
MTS793|BTW|ENU|1|2|.|/|:|1|0|0|A

Data Header:			0.254_solid_dimension_typeiv_4545_r0			Time:	20.0178	s	4/13/2019 8:41:36 PM
Data Acquisition:	Timed
Station Name:	ft40.cfg
Test File Name:	monotonic_0.2540_typeiv_solid_4545_dimension.tst
Displacement	Force	Running Time
mm	N	s
-40.0346	-279.943	0.0227051
-40.0315	-277.352	0.0910645
-40.0256	-276.311	0.159424
-40.02026	-274.213	0.2277832
-40.0143	-272.476	0.296143
-40.00914	-270.1926	0.364502
-40.0034	-263.797	0.432861
-39.9985	-259.701	0.5012207
-39.9921	-259.066	0.56958
-39.9877	-255.14	0.637939
-39.9813	-245.779	0.706299
-39.9747	-243.266	0.7746582
-39.9698	-239.197	0.843018
-39.9636	-235.242	0.911377
-39.9582	-235.259	0.979736
-39.9527	-232.926	1.0481
-39.9463	-229.095	1.11646
-39.9409	-225.015	1.18481
-39.9343	-224.44	1.25317
-39.93	-219.209	1.32153
-39.9236	-208.874	1.38989
-39.9189	-206.418	1.458252
-39.9118	-203.399	1.52661
-39.9064	-198.58	1.59497
-39.9012	-196.562	1.66333
-39.8951	-195.868	1.73169
-39.8899	-190.339	1.80005
-39.8845	-189.1189	1.86841
-39.8769	-189.16	1.93677
-39.8726	-183.41	2.005127
-39.8678	-175.112	2.07349
-39.8615	-171.602	2.14185
-39.8545	-167.1366	2.21021
-39.8501	-161.278	2.27856
-39.8437	-157.254	2.34692
-39.8387	-157.158	2.41528
-39.8335	-153.7802	2.48364
-39.82629	-150.798	2.552002
-39.8221	-150.452	2.62036
-39.816	-147.271	2.68872
-39.8106	-137.521	2.75708
-39.8039	-134.331	2.82544
-39.7986	-130.021	2.8938
-39.7925	-123.884	2.96216
-39.7877	-120.268	3.03052
-39.7817	-115.586	3.098877
-39.77626	-114.974	3.16724
-39.7708	-113.626	3.2356
-39.7643	-112.341	3.30396
-39.75761	-108.8567	3.37231
-39.7527	-100.627	3.44067
-39.7478	-97.2743	3.50903
-39.7419	-91.4021	3.57739
-39.737	-86.0359	3.645752
-39.7305	-82.453	3.71411
-39.7242	-74.5257	3.78247
-39.7186	-73.8525	3.85083
-39.71262	-73.78154	3.91919
-39.708	-72.0758	3.98755
-39.7016	-67.0628	4.05591
-39.6954	-64.1035	4.12427
-39.6913	-60.15556	4.192627
-39.6843	-53.0415	4.26099
-39.6786	-48.1563	4.32935
-39.673	-43.7669	4.39771
-39.6676	-36.9721	4.46606
-39.6623	-33.015	4.53442
-39.6562	-35.01466	4.60278
-39.6513	-31.747	4.67114
-39.6457	-26.1245	4.739502
-39.6383	-24.9866	4.80786
-39.63401	-23.19212	4.87622
-39.6288	-16.301	4.94458
-39.6221	-10.2744	5.01294
-39.6165	-6.8142	5.0813
-39.6107	-0.251694	5.14966
-39.6048	4.36133	5.21802
-39.5987	4.36986	5.286377
-39.593	5.34378	5.35474
-39.589	11.2583	5.4231
-39.5815	12.2849	5.49146
-39.5764	14.3063	5.55981
-39.5705	21.8889	5.62817
-39.5648	26.651	5.69653
-39.5593	31.2289	5.76489
-39.5532	37.2405	5.833252
-39.5476	45.3732	5.90161
-39.5434	43.6167	5.96997
-39.5364	45.1493	6.03833
-39.532	52.0006	6.10669
-39.5251	53.0271	6.17505
-39.5193	54.0852	6.24341
-39.5135	57.9145	6.31177
-39.5074	63.8262	6.380127
-39.5034	68.6173	6.44849
-39.4972	75.8578	6.51685
-39.4912	81.0704	6.58521
-39.4861	83.7318	6.65356
-39.4792	85.0077	6.72192
-39.4747	90.99482	6.79028
-39.4689	93.0868	6.85864
-39.462	93.0946	6.927002
-39.4565	97.0927	6.99536
-39.4512	100.337	7.06372
-39.4458	109.162	7.13208
-39.4394	114.668	7.20044
-39.4339	117.875	7.2688
-39.4289	122.177	7.33716
-39.4221	127.409	7.40552
-39.41618	131.8968	7.473877
-39.4114	131.4	7.54224
-39.4056	133.398	7.6106
-39.40044	135.577	7.67896
-39.3936	138.235	7.74731
-39.3887	144.7	7.81567
-39.3828	150.209	7.88403
-39.3765	154.297	7.95239
-39.3727	158.6779	8.020752
-39.3658	165.061	8.08911
-39.3595	169.837	8.15747
-39.3542	168.546	8.22583
-39.3495	173.6299	8.29419
-39.3431	174.538	8.36255
-39.337	176.077	8.43091
-39.3321	182.018	8.49927
-39.3262	188.365	8.567627
-39.3199	188.792	8.63599
-39.3143	194.435	8.70435
-39.3086	202.872	8.77271
-39.3037	207.625	8.84106
-39.2972	206.476	8.90942
-39.2927	209.81	8.97778
-39.2858	213.44	9.04614
-39.28	215.42	9.114502
-39.2748	218.506	9.18286
-39.2688	224.907	9.25122
-39.2626	226.19	9.31958
-39.2585	228.068	9.38794
-39.2518	239.485	9.4563
-39.2475	246.057	9.52466
-39.2413	244.703	9.59302
-39.2345	248.804	9.661377
-39.2303	251.215	9.72974
-39.2242	253.645	9.7981
-39.2178	255.955	9.86646
-39.2118	259.867	9.93481
-39.2069	262.906	10.0032
-39.2008	265.5	10.0715
-39.1958	275.422	10.1399
-39.19	279.662	10.2083
-39.1836	283.259	10.2766
-39.178	285.899	10.345
-39.1729	288.889	10.41333
-39.1666	291.185	10.4817
-39.1611	293.566	10.55
-39.1562	297.573	10.6184
-39.1497	298.255	10.6868
-39.144	301.985	10.7551
-39.1379	310.132	10.8235
-39.1324	313.213	10.8918
-39.12706	318.028	10.9602
-39.1211	321.741	11.0286
-39.11602	324.061	11.0969
-39.10944	328.519	11.1653
-39.1036	331.692	11.2336
-39.0981	330.778	11.302
-39.0937	332.191	11.3704
-39.0858	336.551	11.4387
-39.0811	344.4075	11.50708
-39.0748	346.855	11.5754
-39.0694	353.96	11.6438
-39.0658	357.419	11.7122
-39.0592	359.126	11.7805
-39.0535	364.607	11.8489
-39.0465	368.279	11.9172
-39.0413	366.864	11.9856
-39.0357	364.848	12.054
-39.0307	370.381	12.1223
-39.0239	376.999	12.1907
-39.0178	380.015	12.259
-39.0132	387.191	12.3274
-39.0084	391.7132	12.3958
-39.001	393.2056	12.4641
-38.9959	399.56	12.5325
-38.9903	400.748	12.60083
-38.9841	399.471	12.6692
-38.9795	399.725	12.7375
-38.9731	406.017	12.8059
-38.9674	409.551	12.8743
-38.9617	411.927	12.9426
-38.9566	418.136	13.011
-38.951	422.488	13.0793
-38.9443	425.445	13.1477
-38.9389	429.617	13.2161
-38.933	436.647	13.2844
-38.9277	435.243	13.3528
-38.9216	432.77	13.4211
-38.9171	437.707	13.4895
-38.9102	441.859	13.5579
-38.9041	441.068	13.6262
-38.8989	447.229	13.69458
-38.8936	452.493	13.7629
-38.8869	456.473	13.8313
-38.8815	462.542	13.8997
-38.876	466.169	13.968
-38.8702	464.682	14.0364
-38.8646	464.955	14.1047
-38.8597	470.257	14.1731
-38.8524	471.49	14.2415
-38.8478	470.257	14.3098
-38.8417	472.9921	14.3782
-38.8365	477.661	14.4465
-38.8311	486.435	14.5149
-38.8248	489.771	14.5833
-38.8187	491.857	14.6516
-38.8129	493.696	14.72
-38.8085	494.321	14.78833
-38.8022	499.263	14.8567
-38.7965	497.105	14.925
-38.7907	499.062	14.9934
-38.7858	502.1463	15.0618
-38.7791	504.945	15.1301
-38.7729	511.455	15.1985
-38.7687	516.104	15.2668
-38.763	518.052	15.3352
-38.7571	517.853	15.4036
-38.751	520.73	15.4719
-38.7449	522.886	15.5403
-38.73938	520.358	15.6086
-38.73365	522.543	15.677
-38.7288	525.14	15.7454
-38.72263	525.8	15.8137
-38.7166	530.983	15.88208
-38.7118	537.139	15.9504
-38.7047	538.858	16.0188
-38.69957	538.4231	16.0872
-38.6941	541.9212	16.1555
-38.6878	545.692	16.2239
-38.6833	542.169	16.2922
-38.6764	544.18	16.3606
-38.6711	544.226	16.429
-38.6654	543.2218	16.4973
-38.66	546.918	16.5657
-38.6552	552.8241	16.634
-38.647	554.305	16.7024
-38.6428	554.2959	16.7708
-38.6372	559.461	16.8391
-38.6312	561.305	16.9075
-38.6256	558.249	16.97583
-38.6199	556.3606	17.0442
-38.6138	559.002	17.1125
-38.6077	556.669	17.1809
-38.6038	557.992	17.2493
-38.5979	561.775	17.3176
-38.5906	564.058	17.386
-38.5847	563.398	17.4543
-38.5799	569.5	17.5227
-38.5751	572.092	17.5911
-38.5688	568.474	17.6594
-38.5638	566.153	17.7278
-38.5569	567.494	17.7961
-38.5517	566.543	17.8645
-38.5463	566.692	17.9329
-38.5407	568.705	18.0012
-38.5341	567.436	18.06958
-38.5296	568.245	18.1379
-38.5232	574.3432	18.2063
-38.5183	576.0191	18.2747
-38.5125	573.348	18.343
-38.5052	573.549	18.4114
-38.4993	571.026	18.4797
-38.4952	570.232	18.5481
-38.4879	571.0318	18.6165
-38.4833	569.828	18.6848
-38.4769	569.2207	18.7532
-38.4724	569.0672	18.8215
-38.4662	572.798	18.8899
-38.4599	575.362	18.9583
-38.4545	573.836	19.0266
[...]
-36.1203	528.3504	47.054
-36.1154	532.8028	47.1028
-36.11	538.454	47.1516
-36.1068	536.805	47.2004
-36.1017	530.965	47.2493
-36.0992	533.068	47.2981
-36.0943	535.5177	47.3469
-36.0907	535.383	47.3958
-36.0851	531.4115	47.44458
-36.0827	526.954	47.4934
-36.0787	531.565	47.5422
-36.0745	535.911	47.5911
-36.07	534.814	47.6399
-36.0671	529.145	47.6887
-36.0615	528.165	47.7375
-36.05846	532.706	47.7864
-36.0539	534.471	47.8352
-36.0499	533.152	47.884
-36.0465	530.32	47.9329
-36.0421	535.632	47.9817
-36.0376	536.567	48.0305
-36.0339	535.704	48.0793
-36.03	530.98	48.1282
-36.0248	529.994	48.177
-36.0214	532.314	48.22583
-36.0178	535.7782	48.2747
-36.01334	533.475	48.3235
-36.0089	529.425	48.3723
-36.0052	529.0592	48.4211
-36.002	531.481	48.47
-35.9974	533.221	48.5188
-35.9928	530.072	48.5676
-35.988	530.915	48.6165
-35.9846	535.081	48.6653
-35.981	537.3598	48.7141
-35.9766	533.417	48.7629
-35.9729	529.276	48.8118
-35.9684	530.998	48.8606
-35.9652	535.228	48.9094
-35.9603	532.791	48.9583
-35.957	530.554	49.00708
-35.9529	529.031	49.0559
-35.9481	530.407	49.1047
-35.9434	531.294	49.1536
-35.9413	529.774	49.2024
-35.9365	530.106	49.2512
-35.9319	530.518	49.3
-35.9274	534.656	49.3489
-35.9221	534.4892	49.3977
-35.9191	529.837	49.4465
-35.9164	527.401	49.4954
-35.9109	530.435	49.5442
-35.9069	535.459	49.593
-35.9035	532.22	49.6418
-35.9001	528.8385	49.6907
-35.8953	530.53	49.7395
-35.8911	533.12	49.78833
-35.8878	532.829	49.8372
-35.8848	527.21	49.886
-35.8791	526.569	49.9348
-35.8756	531.6861	49.9836
-35.8716	534.518	50.0325
-35.8666	533.148	50.0813
-35.8631	528.375	50.1301
-35.859	527.9	50.179
-35.8538	532.292	50.2278
-35.8498	535.1911	50.2766
-35.8464	531.59	50.3254
-35.84346	526.327	50.3743
-35.8385	530.475	50.4231
-35.8348	535.428	50.4719
-35.83054	530.635	50.5208
-35.8267	525.474	50.56958
-35.822	526.064	50.6184
-35.8174	532.867	50.6672
-35.813	535.714	50.7161
-35.8093	530.982	50.7649
-35.8051	526.0329	50.8137
-35.8013	526.272	50.8625
-35.79707	531.706	50.9114
-35.79372	534.4339	50.9602
-35.79	529.689	51.009
-35.7855	524.6217	51.0579
-35.7824	530.784	51.1067
-35.7782	535.164	51.1555
-35.7729	530.523	51.2043
-35.7674	524.061	51.2532
-35.7667	523.807	51.302
-35.7611	530.325	51.35083
-35.7558	532.242	51.3997
-35.7531	528.207	51.4485
-35.7487	524.877	51.4973
-35.7445	524.7782	51.5461
-35.7389	530.461	51.595
-35.7365	530.58	51.6438
-35.7321	524.212	51.6926
-35.7277	523.8501	51.7415
-35.725	528.241	51.7903
-35.7205	532.431	51.8391
-35.715	527.2984	51.8879
-35.711	520.991	51.9368
-35.7087	524.084	51.9856
-35.70433	528.607	52.0344
-35.6991	530.552	52.0833
-35.6962	524.392	52.13208
-35.691	522.227	52.1809
-35.6874	523.19	52.2297
-35.6841	524.604	52.2786
-35.6783	525.031	52.3274
-35.6759	519.301	52.3762
-35.6718	519.953	52.425
-35.6668	523.924	52.4739
-35.6633	527.335	52.5227
-35.6593	521.995	52.5715
-35.6555	516.469	52.6204
-35.6513	517.078	52.6692
-35.64756	522.199	52.718
-35.6424	520.841	52.7668
-35.6398	515.902	52.8157
-35.6334	515.754	52.8645
-35.6314	516.724	52.91333
-35.627	514.25	52.9622
-35.6228	511.293	53.011
-35.6191	503.5311	53.0598
-35.6141	501.429	53.1086
-35.6077	-53.1029	53.1575
-35.6055	-38.7236	53.2063
-35.6013	-42.7163	53.2551
-35.5972	-46.4044	53.304
-35.5932	-43.80431	53.3528
-35.58984	-40.7111	53.4016
-35.58606	-43.1589	53.4504
-35.5807	-46.1902	53.4993
-35.5767	-42.8937	53.5481
-35.5723	-39.6376	53.5969
-35.5695	-43.3691	53.6458
-35.5662	-45.6207	53.69458
-35.5614	-49.0451	53.7434
-35.5574	-43.2511	53.7922
-35.5532	-42.3876	53.8411
-35.5492	-42.9945	53.8899
-35.5444	-43.5639	53.9387
-35.5408	-46.8279	53.9875
-35.5367	-42.8016	54.0364
-35.53339	-41.3489	54.0852
-35.5309	-41.4951	54.1047