Folder: Stress_Strain_Analysis_Tools/data/processed_data_files/tensile (part 25)

File: 0.254_hd_uprint_typeiv_4545_r(2).dat
MTS793|BTW|ENU|1|2|.|/|:|1|0|0|A

Data Header:			0.254_hd_uprint_typeiv_4545_r0			Time:	20.0303	s	4/13/2019 7:14:06 PM
Data Acquisition:	Timed
Station Name:	ft40.cfg
Test File Name:	monotonic_0.2540_typeiv_hd_4545_uprint.tst
Displacement	Force	Running Time
mm	N	s
-40.0399	-145.983	0.03515625
-40.037	-133.186	0.103516
-40.0319	-123.648	0.171875
-40.0259	-116.211	0.240234
-40.0213	-112.6136	0.308594
-40.0149	-106.638	0.376953
-40.0085	-109.66	0.4453125
-40.00312	-111.823	0.513672
-39.9972	-114.0357	0.582031
-39.9925	-116.964	0.650391
-39.9872	-113.248	0.71875
-39.9804	-105.284	0.787109
-39.975	-94.0456	0.855469
-39.9695	-87.4022	0.923828
-39.964	-78.7533	0.9921875
-39.959	-70.5905	1.06055
-39.9538	-69.6453	1.12891
-39.94709	-74.9868	1.19727
-39.9406	-77.0586	1.265625
-39.9351	-79.0747	1.33398
-39.9305	-79.9516	1.40234
-39.924	-73.5851	1.4707
-39.9188	-66.02993	1.53906
-39.9131	-59.9568	1.60742
-39.9065	-51.2754	1.67578
-39.90197	-38.1225	1.74414
-39.89584	-34.3128	1.8125
-39.8911	-37.6406	1.88086
-39.8843	-39.4567	1.94922
-39.8794	-42.37574	2.01758
-39.87384	-47.1235	2.08594
-39.868	-43.6205	2.1543
-39.8619	-37.5885	2.22266
-39.8573	-33.1627	2.29102
-39.8494	-22.9479	2.359375
-39.845	-9.18532	2.42773
-39.8388	-3.36089	2.49609
-39.8332	-1.995275	2.56445
-39.82729	-1.07109	2.63281
-39.8217	-4.02109	2.70117
-39.81617	-9.86362	2.76953
-39.8114	-9.4977	2.83789
-39.8066	-9.052269	2.90625
-39.7982	-4.45626	2.97461
-39.7929	3.18043	3.04297
-39.7879	18.9995	3.11133
-39.7814	27.676	3.17969
-39.7769	30.6794	3.24805
-39.7713	34.9803	3.31641
-39.764	33.3098	3.38477
-39.7598	27.8157	3.453125
-39.753	26.209	3.52148
-39.7478	24.4847	3.58984
-39.7424	23.8766	3.6582
-39.7375	31.6291	3.72656
-39.732	46.4356	3.79492
-39.7255	56.4437	3.86328
-39.72	63.3009	3.93164
-39.7146	69.6874	4
-39.7083	68.73558	4.06836
-39.7033	68.3616	4.13672
-39.6965	63.05822	4.20508
-39.69088	57.6666	4.27344
-39.686	58.9195	4.3418
-39.6797	62.6018	4.41016
-39.67527	72.8916	4.47852
-39.6682	82.2534	4.546875
-39.6628	93.7881	4.61523
-39.6566	101.222	4.68359
-39.6513	102.278	4.75195
-39.6448	103.505	4.82031
-39.6393	98.3198	4.88867
-39.6335	93.2397	4.95703
-39.6284	90.9929	5.02539
-39.6225	93.0384	5.09375
-39.6166	99.8013	5.16211
-39.6123	109.189	5.23047
-39.6056	119.252	5.29883
-39.59996	128.949	5.36719
-39.5942	135.723	5.43555
-39.5891	138.997	5.50391
-39.5828	136.911	5.57227
-39.5765	130.094	5.640625
-39.571	126.588	5.70898
-39.5663	127.726	5.77734
-39.55994	130.0694	5.8457
-39.5549	135.737	5.91406
-39.5473	146.989	5.98242
-39.5435	156.732	6.05078
-39.5383	165.587	6.11914
-39.5314	171.298	6.1875
-39.5259	171.35	6.25586
-39.52002	165.79	6.32422
-39.5154	161.726	6.39258
-39.5087	163.728	6.46094
-39.50359	160.363	6.5293
-39.498	163.699	6.59766
-39.4924	174.537	6.66602
-39.4866	182.005	6.734375
-39.4805	192.532	6.80273
-39.4747	201.449	6.87109
-39.4698	205.308	6.93945
-39.4639	201.306	7.00781
-39.4575	198.493	7.07617
-39.4516	197.823	7.14453
-39.4478	193.698	7.21289
-39.4405	193.4032	7.28125
-39.4351	201.2648	7.34961
-39.4294	207.991	7.41797
-39.4235	218.163	7.48633
-39.41721	230.589	7.55469
-39.4124	237.325	7.62305
-39.406	233.878	7.69141
-39.4002	234.486	7.75977
-39.3948	234.899	7.828125
-39.3888	226.608	7.89648
-39.3843	226.0874	7.96484
-39.3781	229.166	8.0332
-39.37336	234.455	8.10156
-39.3681	243.949	8.16992
-39.3612	255.954	8.23828
-39.3554	263.956	8.30664
-39.3506	265.458	8.375
-39.3444	268.326	8.44336
-39.3375	269.007	8.51172
-39.3322	262.965	8.58008
-39.328	259.24	8.64844
-39.3218	259.193	8.7168
-39.3154	263.349	8.78516
-39.3095	269.444	8.85352
-39.3038	279.916	8.921875
-39.2998	288.814	8.99023
-39.2929	292.769	9.05859
-39.287	300.7883	9.12695
-39.2813	302.517	9.19531
-39.2751	297.805	9.26367
-39.271	294.484	9.33203
-39.2654	291.894	9.40039
-39.2598	291.642	9.46875
-39.2534	293.989	9.53711
-39.2469	301.988	9.60547
-39.24192	310.227	9.67383
-39.2355	317.839	9.74219
-39.2306	328.034	9.81055
-39.2255	332.176	9.87891
-39.2192	331.205	9.94727
-39.2135	329.2699	10.0156
-39.2069	325.541	10.084
-39.2026	321.698	10.1523
-39.1954	322.95	10.2207
-39.1911	326.335	10.2891
-39.1853	332.6972	10.3574
-39.1794	342.3176	10.4258
-39.1739	352.167	10.4941
-39.1663	358.177	10.5625
-39.1621	360.64	10.6309
-39.1565	360.623	10.6992
-39.1504	356.138	10.7676
-39.1455	353.139	10.8359
-39.1386	352.16	10.9043
-39.1335	351.989	10.9727
-39.1286	354.709	11.041
-39.123	361.986	11.1094
-39.1169	374.53	11.1777
-39.1113	382.097	11.2461
-39.1053	387.753	11.3145
-39.099	391.737	11.3828
-39.0928	387.474	11.4512
-39.08865	383.659	11.5195
-39.0828	382.482	11.5879
-39.0761	378.755	11.65625
-39.0711	376.258	11.7246
-39.0659	383.273	11.793
-39.0595	396.174	11.8613
-39.0529	401.805	11.9297
-39.0469	411.32	11.998
-39.0415	416.107	12.0664
-39.03672	414.0654	12.1348
-39.0311	413.041	12.2031
-39.0257	409.756	12.2715
-39.0199	404.621	12.3398
-39.0151	400.604	12.4082
-39.0085	405.174	12.4766
-39.0024	416.247	12.5449
-38.9967	423.035	12.6133
-38.99017	431.283	12.6816
-38.9847	440.5105	12.75
-38.97979	439.666	12.8184
-38.9738	440.724	12.8867
-38.9678	437.043	12.9551
-38.9625	432.051	13.0234
-38.9572	425.396	13.0918
-38.9515	427.792	13.1602
-38.9454	435.459	13.2285
-38.9401	440.091	13.2969
-38.9342	448.995	13.3652
-38.9284	457.096	13.4336
-38.9226	462.577	13.502
-38.9161	463.683	13.5703
-38.9111	462.356	13.6387
-38.906	456.913	13.707
-38.8994	449.017	13.7754
-38.8943	448.236	13.84375
-38.8887	451.9819	13.9121
-38.8831	454.163	13.9805
-38.87772	463.2684	14.0488
-38.8715	473.482	14.1172
-38.86541	480.053	14.1855
-38.8604	483.98	14.2539
-38.8543	484.322	14.3223
-38.8486	479.288	14.3906
-38.8431	471.807	14.459
-38.8382	470.616	14.5273
-38.8313	469.76	14.5957
-38.826	468.777	14.6641
-38.82	474.461	14.7324
-38.8148	483.417	14.8008
-38.8097	492.806	14.8691
-38.8025	497.957	14.9375
-38.7991	500.952	15.0059
-38.7919	496.744	15.0742
-38.7854	489.787	15.1426
-38.78072	487.491	15.2109
-38.7743	481.9678	15.2793
-38.7698	479.831	15.3477
-38.7628	483.7	15.416
-38.7572	490.736	15.4844
-38.7527	498.507	15.5527
-38.7455	506.718	15.6211
-38.741	508.899	15.6895
-38.7351	507.5885	15.7578
-38.7296	502.945	15.8262
-38.7232	500.5141	15.8945
-38.71841	493.075	15.9629
-38.7122	488.249	16.03125
-38.7071	489.416	16.0996
-38.7002	490.518	16.168
-38.6953	499.1134	16.2363
-38.6891	507.999	16.3047
-38.684	512.445	16.373
-38.6764	512.498	16.4414
-38.6721	511.4267	16.5098
-38.665	509.495	16.5781
-38.6611	500.404	16.6465
-38.6542	494.8	16.7148
-38.6494	492.362	16.7832
-38.64304	489.558	16.8516
-38.6381	495.304	16.9199
-38.633	504.113	16.9883
-38.6264	509.446	17.0566
-38.6203	511.431	17.125
-38.6147	513.145	17.1934
-38.6098	513.236	17.2617
-38.6036	504.909	17.3301
-38.597	495.793	17.3984
-38.5913	493.393	17.4668
-38.587	488.628	17.5352
-38.581	491.45	17.6035
-38.5753	497.76	17.6719
-38.5701	504.701	17.7402
-38.5632	506.643	17.8086
-38.5578	510.556	17.877
-38.5537	513.441	17.9453
-38.546	506.244	18.0137
-38.5418	499.348	18.082
-38.5341	493.41	18.1504
-38.5303	487.474	18.21875
-38.525	487.8356	18.2871
-38.5179	492.9512	18.3555
-38.5122	496.016	18.4238
-38.5073	498.762	18.4922
-38.5013	506.522	18.5605
-38.4959	511.754	18.6289
-38.49	508.198	18.6973
-38.4836	501.844	18.7656
-38.478	496.851	18.834
-38.472	487.986	18.9023
-38.467	485.459	18.9707
-38.4606	486.626	19.0391
-38.45557	489.685	19.1074
-38.4491	492.913	19.1758
[...]
-36.6611	-50.4643	40.6504
-36.66021	-48.4104	40.6602
-36.6596	-44.0325	40.6699
-36.6579	-37.8462	40.6797
-36.658	-32.3608	40.6895
-36.6567	-37.67712	40.6992
-36.6564	-46.209	40.709
-36.6547	-51.0132	40.71875
-36.6557	-48.0283	40.7285
-36.65374	-34.6192	40.7383
-36.6523	-32.7537	40.748
-36.6517	-34.9797	40.7578
-36.6523	-44.2028	40.7676
-36.6514	-50.5436	40.7773
-36.65	-49.1121	40.7871
-36.648	-43.2158	40.7969
-36.6478	-34.3475	40.8066
-36.6478	-31.2354	40.8164
-36.646	-39.1135	40.8262
-36.6456	-48.9493	40.8359
-36.645	-53.2331	40.8457
-36.6447	-44.4753	40.8555
-36.6431	-34.03912	40.8652
-36.6413	-31.47044	40.875
-36.6418	-37.8058	40.8848
-36.6406	-45.642	40.8945
-36.6402	-53.3495	40.9043
-36.6392	-49.1664	40.9141
-36.63932	-38.3726	40.9238
-36.638	-32.22887	40.9336
-36.6366	-32.144	40.9434
-36.63625	-44.34425	40.9531
-36.6349	-52.4966	40.9629
-36.6338	-50.2369	40.9727
-36.6341	-40.2578	40.9824
-36.6322	-32.92168	40.9922
-36.631	-33.8968	41.002
-36.63105	-40.7129	41.0117
-36.63023	-46.2324	41.0215
-36.6296	-52.8417	41.03125
-36.6289	-45.3601	41.041
-36.6275	-36.318	41.0508
-36.6272	-29.9499	41.0605
-36.628	-35.5234	41.0703
-36.6248	-46.75174	41.0801
-36.6246	-50.6618	41.0898
-36.6242	-47.3641	41.0996
-36.6223	-37.9983	41.1094
-36.6213	-34.5336	41.1191
-36.6212	-34.4508	41.1289
-36.62006	-40.2815	41.1387
-36.6193	-47.8092	41.1484
-36.6181	-49.1779	41.1582
-36.6177	-45.3956	41.168
-36.6169	-35.8691	41.1777
-36.61599	-31.1674	41.1875
-36.6157	-39.0677	41.1973
-36.6148	-47.3391	41.207
-36.6129	-49.6356	41.2168
-36.6131	-45.5904	41.2266
-36.6122	-41.0106	41.2363
-36.6109	-34.3421	41.2461
-36.6101	-35.6589	41.2559
-36.6099	-39.8705	41.2656
-36.6085	-50.4189	41.2754
-36.6086	-50.9122	41.2852
-36.6084	-41.20314	41.2949
-36.6073	-35.2473	41.3047
-36.605	-34.7224	41.3145
-36.6059	-36.891	41.3242
-36.6038	-49.3648	41.334
-36.6029	-49.6689	41.34375
-36.6036	-46.97298	41.3535
-36.6003	-39.5363	41.3633
-36.60001	-32.6767	41.373
-36.5998	-35.0462	41.3828
-36.5986	-42.73394	41.3926
-36.5981	-52.25808	41.4023
-36.5972	-51.9351	41.4121
-36.597	-39.8221	41.4219
-36.59581	-34.60569	41.4316
-36.5953	-31.7925	41.4414
-36.5958	-41.0676	41.4512
-36.5942	-48.65625	41.4609
-36.5932	-50.4709	41.4707
-36.5904	-47.85133	41.4805
-36.5906	-36.4418	41.4902
-36.591	-30.2152	41.5
-36.5894	-37.0564	41.5098
-36.5882	-47.0805	41.5195
-36.5883	-53.8922	41.5293
-36.587	-46.658	41.5391
-36.5847	-35.99139	41.5488
-36.5852	-33.6323	41.5586
-36.5842	-35.3398	41.5684
-36.5838	-43.6966	41.5781
-36.5828	-49.6505	41.5879
-36.5822	-51.3922	41.5977
-36.5807	-42.4384	41.6074
-36.57983	-33.1265	41.6172
-36.5789	-30.4101	41.627
-36.5774	-39.7153	41.6367
-36.5777	-51.5199	41.6465
-36.5777	-53.2011	41.65625
-36.5757	-45.0441	41.666
-36.576	-34.41153	41.6758
-36.5743	-34.88868	41.6855
-36.5742	-36.512	41.6953
-36.5733	-43.3319	41.7051
-36.5718	-50.4925	41.7148
-36.571	-47.7622	41.7246
-36.5704	-38.9721	41.7344
-36.5688	-31.5905	41.7441
-36.5687	-33.5384	41.7539
-36.5691	-44.8793	41.7637
-36.5676	-49.5031	41.7734
-36.5663	-49.0224	41.7832
-36.5659	-41.0369	41.793
-36.5645	-35.9609	41.8027
-36.5635	-33.8284	41.8125
-36.5627	-36.4492	41.8223
-36.5627	-46.4018	41.832
-36.5609	-50.395	41.8418
-36.5609	-47.832	41.8516
-36.5594	-39.231	41.8613
-36.5591	-30.2317	41.8711
-36.5581	-36.01601	41.8809
-36.55761	-43.5377	41.8906
-36.5563	-48.8914	41.9004
-36.5563	-48.7575	41.9102
-36.55582	-40.7121	41.9199
-36.55415	-36.4446	41.9297
-36.553	-35.0664	41.9395
-36.553	-37.8056	41.9492
-36.5515	-47.4328	41.959
-36.5518	-52.7457	41.96875
-36.5517	-46.9627	41.9785
-36.5503	-36.6738	41.9883
-36.5479	-30.56419	41.998
-36.5477	-36.0609	42.0078
-36.5472	-47.3188	42.0176

File: 0.254_hd_uprint_typeiv_4545_r(3).dat
MTS793|BTW|ENU|1|2|.|/|:|1|0|0|A

Data Header:			0.254_hd_uprint_typeiv_4545_r0			Time:	20.0173	s	4/13/2019 7:17:08 PM
Data Acquisition:	Timed
Station Name:	ft40.cfg
Test File Name:	monotonic_0.2540_typeiv_hd_4545_uprint.tst
Displacement	Force	Running Time
mm	N	s
-40.0347	46.4483	0.0224609
-40.0343	44.7815	0.0908203
-40.0287	48.8967	0.15918
-40.0218	52.336	0.227539
-40.0161	51.4019	0.295898
-40.0101	53.7593	0.364258
-40.005	58.2077	0.432617
-39.9998	60.5014	0.500977
-39.9945	62.26	0.569336
-39.9879	69.5488	0.637695
-39.983	76.7595	0.706055
-39.9762	79.4001	0.774414
-39.971	83.23484	0.842773
-39.96637	84.9472	0.911133
-39.96022	87.2167	0.979492
-39.9542	89.4668	1.04785
-39.9492	91.7519	1.11621
-39.9419	93.916	1.18457
-39.9367	96.5027	1.25293
-39.9315	103.505	1.32129
-39.9244	106.919	1.38965
-39.9194	112.265	1.45801
-39.9138	118.331	1.52637
-39.9084	117.85	1.59473
-39.9029	122.713	1.66309
-39.8979	124.084	1.73145
-39.891	124.595	1.7998
-39.8855	123.578	1.86816
-39.881	129.337	1.93652
-39.8732	134.854	2.00488
-39.8687	137.807	2.07324
-39.8625	144.073	2.1416
-39.857	148.196	2.20996
-39.8515	149.949	2.27832
-39.8473	155.139	2.34668
-39.84082	156.693	2.41504
-39.8342	158.15	2.4834
-39.829	156.971	2.55176
-39.8236	160.679	2.62012
-39.8176	166.79	2.68848
-39.8124	169.392	2.75684
-39.8068	175.331	2.8252
-39.7995	181.154	2.89355
-39.7941	183.547	2.96191
-39.7894	186.852	3.03027
-39.7837	191.495	3.09863
-39.7762	189.7	3.16699
-39.7718	189.1002	3.23535
-39.7653	194.133	3.30371
-39.76041	198.191	3.37207
-39.7543	198.497	3.44043
-39.749	205.382	3.50879
-39.7424	211.5058	3.57715
-39.7372	214.288	3.64551
-39.7319	218.757	3.71387
-39.7264	224.877	3.78223
-39.7212	222.976	3.85059
-39.7167	221.7155	3.91895
-39.7091	226.75	3.9873
-39.7032	229.694	4.05566
-39.6975	230.848	4.12402
-39.6918	237.21	4.19238
-39.6867	242.024	4.26074
-39.68	246.471	4.3291
-39.6759	251.093	4.39746
-39.6698	255.732	4.46582
-39.6628	255.858	4.53418
-39.6587	252.774	4.60254
-39.6519	258.974	4.6709
-39.6454	259.659	4.73926
-39.6406	261.863	4.80762
-39.6361	266.938	4.87598
-39.6295	271.085	4.94434
-39.6239	276.067	5.0127
-39.61784	280.021	5.08105
-39.6128	284.585	5.14941
-39.6066	285.467	5.21777
-39.5998	286.392	5.28613
-39.5961	289.253	5.35449
-39.5891	292.018	5.42285
-39.5839	291.432	5.49121
-39.5784	294.778	5.55957
-39.5731	298.772	5.62793
-39.567	303.687	5.69629
-39.5615	309.457	5.76465
-39.555	314.335	5.83301
-39.54895	314.33	5.90137
-39.5438	316.67	5.96973
-39.5387	322.0639	6.03809
-39.5326	323.073	6.10645
-39.52668	323.032	6.1748
-39.5217	325.767	6.24316
-39.5152	327.908	6.31152
-39.50985	333.035	6.37988
-39.5051	338.989	6.44824
-39.4985	339.788	6.5166
-39.49213	343.137	6.58496
-39.4866	348.579	6.65332
-39.4811	352.115	6.72168
-39.4753	351.631	6.79004
-39.4705	353.82	6.8584
-39.4641	354.448	6.92676
-39.4592	353.98	6.99512
-39.4532	361.271	7.06348
-39.4481	364.322	7.13184
-39.4404	367.922	7.2002
-39.4369	369.1311	7.26855
-39.4314	376.384	7.33691
-39.4242	381.259	7.40527
-39.4193	380.912	7.47363
-39.4135	381.687	7.54199
-39.4074	382.934	7.61035
-39.402	383.563	7.67871
-39.3969	386.132	7.74707
-39.3904	394.141	7.81543
-39.3825	393.438	7.88379
-39.3787	394.457	7.95215
-39.3733	404.261	8.02051
-39.3675	407.152	8.08887
-39.3615	407.654	8.15723
-39.355	408.982	8.22559
-39.3507	410.339	8.29395
-39.3438	409.156	8.3623
-39.33913	412.788	8.43066
-39.3331	416.192	8.49902
-39.3272	416.9509	8.56738
-39.3235	420.352	8.63574
-39.3167	428.763	8.7041
-39.3105	431.939	8.77246
-39.3052	431.593	8.84082
-39.29863	434.387	8.90918
-39.29361	437.3125	8.97754
-39.2889	435.706	9.0459
-39.2818	437.2384	9.11426
-39.2763	441.257	9.18262
-39.2709	441.023	9.25098
-39.2642	442.63	9.31934
-39.26	451.505	9.3877
-39.254	456.824	9.45605
-39.2487	457.584	9.52441
-39.2422	457.83	9.59277
-39.2356	462.308	9.66113
-39.2304	461.997	9.72949
-39.2253	462.383	9.79785
-39.22	463.485	9.86621
-39.2143	462.981	9.93457
-39.208	465.94	10.00293
-39.2032	472.602	10.0713
-39.1967	474.329	10.1396
-39.1918	479.827	10.208
-39.18449	481.738	10.2764
-39.1797	483.745	10.3447
-39.1736	484.53	10.4131
-39.1681	484.991	10.4814
-39.1623	482.545	10.5498
-39.1554	481.476	10.6182
-39.1515	486.518	10.6865
-39.1452	490.7908	10.7549
-39.1388	492.96	10.8232
-39.1341	497.019	10.8916
-39.1283	499.716	10.96
-39.1223	501.244	11.02832
-39.1173	503.3	11.09668
-39.1115	502.9278	11.165
-39.1053	501.351	11.2334
-39.0995	498.835	11.3018
-39.0942	503.699	11.3701
-39.0875	505.959	11.4385
-39.0826	506.196	11.5068
-39.07663	511.699	11.5752
-39.0703	514.08	11.6436
-39.0652	514.753	11.7119
-39.0598	518.453	11.7803
-39.055	518.004	11.8486
-39.0478	514.286	11.917
-39.0426	511.296	11.9854
-39.0371	514.656	12.0537
-39.0313	515.187	12.12207
-39.0263	515.713	12.19043
-39.0201	519.287	12.2588
-39.014	523.3385	12.3271
-39.0086	521.936	12.3955
-39.004	524.394	12.4639
-38.9958	524.753	12.5322
-38.9915	519.098	12.6006
-38.9861	518.474	12.6689
-38.9801	522.382	12.7373
-38.9743	519.637	12.8057
-38.969	517.287	12.874
-38.9625	521.294	12.9424
-38.9581	522.705	13.0107
-38.9512	523.54	13.0791
-38.9464	526.173	13.1475
-38.9401	528.1687	13.21582
-38.9347	522.799	13.28418
-38.9279	520.345	13.3525
-38.9228	523.252	13.4209
-38.9171	521.044	13.4893
-38.9105	517.876	13.5576
-38.9066	519.951	13.626
-38.9004	519.176	13.6943
-38.8949	521.278	13.7627
-38.8895	524.477	13.8311
-38.8836	524.567	13.8994
-38.8784	520.06	13.9678
-38.8716	518.539	14.0361
-38.8681	522.269	14.1045
-38.8604	518.209	14.1729
-38.8544	514.763	14.2412
-38.8496	515.87	14.30957
-38.8426	516.926	14.37793
-38.83778	516.828	14.4463
-38.8322	519.987	14.5146
-38.82634	520.266	14.583
-38.8202	517.412	14.6514
-38.815	517.6283	14.7197
-38.8086	518.651	14.7881
-38.80331	515.185	14.8564
-38.7982	513.2334	14.9248
-38.7931	514.297	14.9932
-38.78669	511.495	15.0615
-38.781	514.452	15.1299
-38.7748	515.114	15.1982
-38.7691	515.679	15.2666
-38.7628	516.398	15.335
-38.7585	517.558	15.40332
-38.752	517.374	15.47168
-38.7466	514.792	15.54
-38.7399	512.2182	15.6084
-38.7345	512.732	15.6768
-38.72876	509.148	15.7451
-38.7231	511.7135	15.8135
-38.7186	511.563	15.8818
-38.7125	511.115	15.9502
-38.707	511.706	16.0186
-38.7015	515.155	16.0869
-38.6946	516.621	16.1553
-38.68919	514.496	16.2236
-38.6839	512.409	16.292
-38.6778	509.533	16.3604
-38.6721	508.444	16.4287
-38.6674	508.632	16.49707
-38.66172	508.164	16.56543
-38.6562	507.201	16.6338
-38.6492	508.698	16.7021
-38.64349	514.726	16.7705
-38.6389	514.754	16.8389
-38.6322	512.792	16.9072
-38.6263	513.047	16.9756
-38.62006	508.9736	17.0439
-38.616	507.501	17.1123
-38.6107	507.387	17.1807
-38.6051	506.621	17.249
-38.5996	503.218	17.3174
-38.5934	505.529	17.3857
-38.5874	511.383	17.4541
-38.5822	511.166	17.5225
-38.5748	509.868	17.59082
-38.569	511.633	17.65918
-38.5637	509.067	17.7275
-38.5587	506.64	17.7959
-38.5533	505.899	17.8643
-38.5476	505.622	17.9326
-38.5399	501.021	18.001
-38.5355	502.75	18.0693
-38.5305	508.896	18.1377
-38.52335	508.735	18.2061
-38.518	509.415	18.2744
-38.5123	512.107	18.3428
-38.5079	509.243	18.4111
-38.502	506.88	18.4795
-38.4966	505.903	18.5479
-38.4892	502.979	18.6162
-38.4849	499.132	18.68457
-38.4784	501.516	18.75293
-38.4725	507.702	18.8213
-38.467	506.939	18.8896
-38.4601	508.329	18.958
-38.4553	511.019	19.0264
-38.4506	508.242	19.0947
-38.4453	508.128	19.1631
-38.43792	505.444	19.2314
-38.4326	503.666	19.2998
[...]
-38.02832	500.903	24.1631
-38.025	496.224	24.2021
-38.0213	496.312	24.2412
-38.0192	501.253	24.2803
-38.0148	496.661	24.3193
-38.0116	496.191	24.3584
-38.00806	502.6564	24.3975
-38.0062	495.428	24.4365
-38.003	500.874	24.4756
-38	498.535	24.5146
-37.9957	496.673	24.5537
-37.9924	501.066	24.5928
-37.9893	497.808	24.6318
-37.9858	498.653	24.6709
-37.9824	500.991	24.71
-37.979	495.007	24.749
-37.9755	498.452	24.7881
-37.9726	498.944	24.8271
-37.9706	493.52	24.8662
-37.9653	501.4187	24.9053
-37.96328	495.096	24.9443
-37.9598	493.772	24.9834
-37.957	499.709	25.0225
-37.952	494.051	25.0615
-37.9499	496.381	25.1006
-37.9462	496.468	25.1396
-37.9434	492.876	25.1787
-37.9391	495.633	25.2178
-37.937	493.021	25.2568
-37.9332	495.015	25.2959
-37.9308	495.927	25.335
-37.9278	493.313	25.374
-37.9247	499.35	25.4131
-37.9203	495.786	25.4521
-37.9174	493.251	25.4912
-37.9134	500.034	25.5303
-37.9105	490.262	25.5693
-37.9074	494.576	25.6084
-37.90453	498.3082	25.6475
-37.9012	492.514	25.6865
-37.8981	498.2543	25.7256
-37.8944	497.553	25.7646
-37.89043	493.953	25.8037
-37.8885	498.573	25.8428
-37.88483	494.625	25.8818
-37.8813	495.994	25.9209
-37.8795	499.026	25.96
-37.8749	491.144	25.999
-37.8714	498.224	26.0381
-37.8673	495.569	26.0771
-37.8652	490.253	26.1162
-37.8617	497.022	26.1553
-37.8593	492.915	26.1943
-37.85519	490.399	26.2334
-37.8525	495.218	26.2725
-37.848	491.071	26.3115
-37.8455	491.8027	26.3506
-37.842	495.8	26.3896
-37.8395	490.008	26.4287
-37.8367	493.588	26.4678
-37.8332	490.762	26.5068
-37.8293	491.992	26.5459
-37.8258	491.742	26.585
-37.8225	488.864	26.624
-37.8198	494.474	26.6631
-37.8171	489.585	26.7021
-37.81324	489.603	26.7412
-37.81	495.599	26.7803
-37.8065	489.059	26.8193
-37.80402	491.279	26.8584
-37.7999	496.219	26.8975
-37.7967	487.959	26.9365
-37.7932	492.245	26.9756
-37.7912	492.926	27.0146
-37.78751	488.026	27.0537
-37.784	494.369	27.0928
-37.7803	487.587	27.1318
-37.77652	489.03	27.1709
-37.7742	491.829	27.21
-37.7716	483.895	27.249
-37.7668	489.837	27.2881
-37.76437	484.64	27.3271
-37.7612	479.49	27.3662
-37.7569	488.445	27.4053
-37.7542	478.606	27.4443
-37.75071	474.8298	27.4834
-37.7473	475.568	27.5225
-37.742	-39.0118	27.5615
-37.7406	-47.6715	27.6006
-37.73737	-41.3098	27.6396
-37.7349	-43.9906	27.6787
-37.7316	-43.1198	27.7178
-37.7274	-43.1857	27.7568
-37.7257	-41.9408	27.7959
-37.7215	-42.002	27.835
-37.7176	-45.5321	27.874
-37.7152	-39.0528	27.9131
-37.7122	-42.8657	27.9521
-37.7092	-44.2383	27.9912
-37.706	-37.4665	28.0303
-37.70237	-45.4681	28.0693
-37.6988	-42.4009	28.1084
-37.6959	-39.0772	28.1475
-37.6922	-43.4143	28.1865
-37.689	-38.6807	28.2256
-37.6861	-41.93821	28.2646
-37.6833	-41.7107	28.3037
-37.6804	-37.8774	28.3428
-37.6764	-44.2288	28.3818
-37.6733	-42.5698	28.4209
-37.6695	-38.3478	28.46
-37.667	-47.6889	28.499
-37.6622	-39.7596	28.5381
-37.6598	-41.7295	28.5771
-37.6552	-46.5555	28.6162
-37.653	-38.5427	28.6553
-37.6508	-45.1273	28.6943
-37.6471	-46.3319	28.7334
-37.6442	-40.277	28.7725
-37.6392	-44.635	28.8115
-37.63728	-43.8628	28.8506
-37.6331	-41.1777	28.8896
-37.6313	-44.6274	28.9287
-37.6272	-42.1364	28.9678
-37.624	-45.1704	29.0068
-37.6209	-42.8547	29.0459
-37.6175	-41.0273	29.085
-37.6138	-46.1346	29.124
-37.6109	-39.6908	29.1631
-37.6073	-42.72052	29.2021
-37.6043	-44.0615	29.2412
-37.601	-38.1239	29.2803
-37.5977	-43.2679	29.3193
-37.5945	-42.0589	29.3584
-37.5919	-37.7446	29.3975
-37.5877	-44.811	29.4365
-37.58477	-40.19392	29.4756
-37.5813	-40.9976	29.5146
-37.5786	-43.0025	29.5537
-37.5752	-36.4669	29.5928
-37.57209	-43.8062	29.6318
-37.5683	-41.3179	29.6709
-37.5656	-40.0664	29.71
-37.562	-46.2242	29.749
-37.5612	-43.5864	29.7588