Folder: Stress_Strain_Analysis_Tools/data/processed_data_files/tensile (part 19)

File: 0.254_hd_uprint_typei_4545_r(4).dat
MTS793|BTW|ENU|1|2|.|/|:|1|0|0|A

Data Header:			0.254_hd_uprint_typei_4545_r0			Time:	20.0181	s	4/15/2019 4:12:39 PM
Data Acquisition:	Timed
Station Name:	ft40.cfg
Test File Name:	monotonic_0.2540_typei_hd_4545_uprint.tst
Displacement	Force	Running Time
mm	N	s
9.97996	-126.549	0.0224609
9.98226	-123.14	0.0908203
9.98801	-119.997	0.15918
9.99366	-123.39	0.227539
9.99833	-121.574	0.295898
10.0046	-118.98	0.364258
10.0099	-116.256	0.432617
10.0146	-111.458	0.500977
10.0218	-106.809	0.569336
10.0268	-104.409	0.637695
10.0324	-104.899	0.706055
10.03866	-103.936	0.774414
10.0441	-99.508	0.842773
10.0502	-100.887	0.911133
10.0558	-101.789	0.979492
10.0605	-99.5794	1.04785
10.0666	-97.906	1.11621
10.0728	-92.8102	1.18457
10.0774	-87.8945	1.25293
10.0843	-82.044	1.32129
10.08994	-83.3114	1.38965
10.0957	-82.5565	1.45801
10.1016	-75.42981	1.52637
10.10654	-76.3366	1.59473
10.1132	-78.051	1.66309
10.1177	-76.3919	1.73145
10.1234	-72.5952	1.7998
10.1303	-71.7733	1.86816
10.13469	-66.6106	1.93652
10.1412	-63.3046	2.00488
10.1466	-60.1435	2.07324
10.1522	-58.146	2.1416
10.1587	-51.1665	2.20996
10.1635	-51.94038	2.27832
10.1696	-51.90794	2.34668
10.1752	-52.9741	2.41504
10.1819	-51.8486	2.4834
10.1871	-47.2408	2.55176
10.1914	-43.5705	2.62012
10.1988	-39.9781	2.68848
10.2037	-37.71199	2.75684
10.2093	-33.951	2.8252
10.2142	-28.0401	2.89355
10.2207	-27.157	2.96191
10.226	-26.1207	3.03027
10.2305	-27.0735	3.09863
10.2378	-28.4927	3.16699
10.2438	-22.8869	3.23535
10.24934	-21.4167	3.30371
10.2547	-17.8529	3.37207
10.2604	-16.1786	3.44043
10.2666	-8.87258	3.50879
10.27282	-1.68942	3.57715
10.2786	-2.27691	3.64551
10.2835	-0.656014	3.71387
10.289	3.40686	3.78223
10.2956	-0.00635084	3.85059
10.30084	2.62202	3.91895
10.307	6.11697	3.9873
10.3115	5.406384	4.05566
10.3168	9.920126	4.12402
10.3228	16.9553	4.19238
10.33026	25.4813	4.26074
10.3349	26.2888	4.3291
10.3406	28.9715	4.39746
10.34698	32.13821	4.46582
10.351	29.0329	4.53418
10.358	28.8891	4.60254
10.3638	31.4693	4.6709
10.3692	33.9292	4.73926
10.3743	33.6852	4.80762
10.3811	42.0361	4.87598
10.3866	51.3161	4.94434
10.3915	54.4817	5.0127
10.3972	56.51	5.08105
10.40311	59.3502	5.14941
10.4093	57.4427	5.21777
10.4136	58.3345	5.28613
10.4201	59.2038	5.35449
10.42577	61.422	5.42285
10.4311	62.6028	5.49121
10.43711	67.7508	5.55957
10.4424	77.3231	5.62793
10.44902	80.5725	5.69629
10.4537	83.702	5.76465
10.4607	87.7972	5.83301
10.4654	87.4437	5.90137
10.4722	89.4158	5.96973
10.4775	88.93042	6.03809
10.4825	88.8343	6.10645
10.4899	88.6369	6.1748
10.4945	94.9726	6.24316
10.4994	105.01	6.31152
10.5053	107.145	6.37988
10.5114	110.559	6.44824
10.5169	116.336	6.5166
10.5227	117.749	6.58496
10.5285	120.499	6.65332
10.534	117.818	6.72168
10.5397	119.004	6.79004
10.5459	118.278	6.8584
10.5511	120.555	6.92676
10.5566	129.33	6.99512
10.5634	133.819	7.06348
10.5678	138.987	7.13184
10.5746	145.606	7.2002
10.579	147.621	7.26855
10.5864	148.943	7.33691
10.5921	149.676	7.40527
10.5958	147.367	7.47363
10.6035	146.535	7.54199
10.6068	151.193	7.61035
10.6125	157.1003	7.67871
10.6194	160.08	7.74707
10.6253	167.16	7.81543
10.6306	172.903	7.88379
10.63585	174.198	7.95215
10.6425	179.954	8.02051
10.6472	181.554	8.08887
10.6543	178.329	8.15723
10.6587	175.446	8.22559
10.6652	181.4886	8.29395
10.6703	183.016	8.3623
10.6756	187.21	8.43066
10.6822	194.151	8.49902
10.6869	201.236	8.56738
10.6937	202.13	8.63574
10.6995	208.397	8.7041
10.7048	211.719	8.77246
10.7107	208.6917	8.84082
10.7166	205.872	8.90918
10.7212	210.178	8.97754
10.7281	212.052	9.0459
10.7337	215.221	9.11426
10.7402	220.587	9.18262
10.7447	227.696	9.25098
10.7495	229.458	9.31934
10.7563	235.845	9.3877
10.7623	239.712	9.45605
10.7676	238.276	9.52441
10.77227	235.52	9.59277
10.7787	240.8671	9.66113
10.7842	242.699	9.72949
10.78997	242.6958	9.79785
10.796	247.075	9.86621
10.8017	254.363	9.93457
10.8079	257.912	10.00293
10.8128	262.288	10.0713
10.8191	266.52	10.1396
10.8244	268.843	10.208
10.8294	268.405	10.2764
10.8356	271.368	10.3447
10.8414	272.202	10.4131
10.8475	271.439	10.4814
10.8523	274.746	10.5498
10.8597	279.299	10.6182
10.8637	285.336	10.6865
10.8695	292.76	10.7549
10.8757	294.793	10.8232
10.88143	296.214	10.8916
10.8866	298.45	10.96
10.89282	302.664	11.02832
10.89832	301.758	11.09668
10.9044	300.961	11.165
10.9092	303.3667	11.2334
10.9154	306.944	11.3018
10.9216	311.277	11.3701
10.9277	317.5235	11.4385
10.9332	321.5921	11.5068
10.9387	324.547	11.5752
10.9444	327.756	11.6436
10.9502	332.56	11.7119
10.9552	331.463	11.7803
10.9611	331.598	11.8486
10.96682	333.7886	11.917
10.97276	334.26	11.9854
10.9785	337.971	12.0537
10.9841	343.107	12.12207
10.9903	347.898	12.19043
10.99454	349.645	12.2588
11.0018	354.69	12.3271
11.0075	362.35	12.3955
11.0123	362.776	12.4639
11.01743	358.692	12.5322
11.0244	362.716	12.6006
11.02949	363.166	12.6689
11.0355	363.44	12.7373
11.0408	368.189	12.8057
11.04639	374.987	12.874
11.052	376.323	12.9424
11.0579	381.0408	13.0107
11.0639	390.23	13.0791
11.06976	391.749	13.1475
11.0753	390.235	13.21582
11.08049	392.948	13.28418
11.0856	390.801	13.3525
11.0921	390.12	13.4209
11.0977	395.265	13.4893
11.1043	399.917	13.5576
11.1096	403.472	13.626
11.115	407.165	13.6943
11.1205	416.3425	13.7627
11.1265	419.45	13.8311
11.1326	416.754	13.8994
11.1379	420.5	13.9678
11.1444	418.084	14.0361
11.1491	419.659	14.1045
11.154	420.768	14.1729
11.1609	424.781	14.2412
11.1653	426.982	14.30957
11.1719	432.374	14.37793
11.1767	441.046	14.4463
11.1836	446.433	14.5146
11.1896	447.517	14.583
11.1948	448.133	14.6514
11.1996	447.374	14.7197
11.2053	448.299	14.7881
11.2118	448.199	14.8564
11.2177	449.06	14.9248
11.2232	453.484	14.9932
11.2288	457.1944	15.0615
11.2341	466.906	15.1299
11.2404	470.806	15.1982
11.2454	474.833	15.2666
11.2515	477.133	15.335
11.2562	475.212	15.40332
11.2637	475.573	15.47168
11.2689	475.338	15.54
11.2739	474.609	15.6084
11.2785	474.508	15.6768
11.2851	481.475	15.7451
11.2911	489.9357	15.8135
11.29694	494.435	15.8818
11.3017	498.9	15.9502
11.3087	503.152	16.0186
11.3144	502.364	16.0869
11.3211	503.545	16.1553
11.3252	503.14	16.2236
11.3307	503.89	16.292
11.3367	500.822	16.3604
11.3419	505.373	16.4287
11.3479	515.442	16.49707
11.35446	518.588	16.56543
11.3593	523.261	16.6338
11.366	529.5907	16.7021
11.3709	529.204	16.7705
11.3771	529.745	16.8389
11.3829	529.902	16.9072
11.3887	531.282	16.9756
11.3927	526.231	17.0439
11.3998	529.163	17.1123
11.4045	537.735	17.1807
11.4109	542.116	17.249
11.4168	545.743	17.3174
11.4211	553.057	17.3857
11.4286	557.877	17.4541
11.4337	557.906	17.5225
11.44002	556.509	17.59082
11.4447	556.954	17.65918
11.451	552.8941	17.7275
11.4571	552.422	17.7959
11.4626	559.939	17.8643
11.4678	563.844	17.9326
11.4734	569.597	18.001
11.4788	574.94	18.0693
11.4843	578.684	18.1377
11.4908	581.6142	18.2061
11.4961	581.708	18.2744
11.5015	581.296	18.3428
11.5072	578.9942	18.4111
11.5138	577.989	18.4795
11.5197	583.063	18.5479
11.5246	584.8656	18.6162
11.5308	589.982	18.68457
11.53567	595.675	18.75293
11.5429	601.724	18.8213
11.54838	605.4693	18.8896
11.5537	606.759	18.958
11.5587	607.251	19.0264
11.5646	602.919	19.0947
11.5715	603.128	19.1631
11.576	605.817	19.2314
11.582	607.588	19.2998
11.58727	614.009	19.3682
11.5944	617.945	19.4365
11.599	620.399	19.5049
11.6037	627.749	19.5732
11.6101	631.815	19.6416
11.6154	629.257	19.71
11.622	627.392	19.77832
11.628	625.794	19.84668
11.6325	630.734	19.915
[...]
13.66236	886.607	44.2705
13.66502	876.262	44.2998
13.6676	886.322	44.3291
13.66986	876.085	44.3584
13.6719	887.582	44.3877
13.6751	876.829	44.417
13.6775	884.896	44.4463
13.6798	877.739	44.4756
13.6817	882.938	44.5049
13.6842	876.097	44.53418
13.6867	881.152	44.5635
13.6897	883.628	44.5928
13.6918	882.5813	44.62207
13.6952	880.492	44.6514
13.6966	876.8653	44.6807
13.6992	886.415	44.71
13.7016	877.221	44.7393
13.70287	882.947	44.7686
13.7071	877.36	44.7979
13.7088	885.9118	44.8271
13.7117	873.777	44.8564
13.7127	881.252	44.8857
13.7158	877.74	44.915
13.7177	884.3808	44.9443
13.7212	878.435	44.9736
13.7234	879.355	45.00293
13.7263	881.43	45.0322
13.72774	879.1358	45.0615
13.7305	879.068	45.09082
13.7326	877.982	45.1201
13.7356	883.727	45.1494
13.7383	875.956	45.1787
13.7402	883.104	45.208
13.7427	874.413	45.2373
13.7458	885.352	45.2666
13.7481	875.363	45.2959
13.7497	884.39	45.3252
13.7536	876.6	45.3545
13.7557	881.129	45.3838
13.7578	875.353	45.4131
13.76005	881.83	45.4424
13.7625	878.4552	45.47168
13.7653	875.642	45.501
13.7674	879.8548	45.5303
13.7697	876.263	45.55957
13.7726	882.236	45.5889
13.77504	870.819	45.6182
13.7774	883.801	45.6475
13.7787	875.882	45.6768
13.782	884.304	45.7061
13.7838	869.677	45.7354
13.7877	881.521	45.7646
13.7901	872.438	45.7939
13.7923	880.791	45.8232
13.7935	871.218	45.8525
13.7963	881.3045	45.8818
13.7996	872.958	45.9111
13.8011	875.894	45.94043
13.8042	874.832	45.9697
13.8066	876.043	45.999
13.80929	876.73	46.02832
13.8105	871.901	46.0576
13.8138	877.406	46.0869
13.817	870.91	46.1162
13.8186	877.681	46.1455
13.8212	870.3573	46.1748
13.8242	881.982	46.2041
13.8263	869.364	46.2334
13.8284	879.176	46.2627
13.8299	867.671	46.292
13.83351	877.303	46.3213
13.8361	868.259	46.3506
13.8381	875.551	46.3799
13.841	873.015	46.40918
13.8432	875.112	46.4385
13.8453	869.297	46.4678
13.8477	868.79	46.49707
13.8509	873.271	46.5264
13.8532	868.194	46.5557
13.85612	869.762	46.585
13.8582	864.804	46.6143
13.859	870.078	46.6436
13.8615	858.9	46.6729
13.8657	864.0686	46.7021
13.86653	856.8	46.7314
13.8693	864.026	46.7607
13.8723	833.845	46.79
13.8802	-58.2687	46.8193
13.8791	-51.1589	46.8486
13.8812	-45.5753	46.87793
13.8838	-48.7214	46.9072
13.8861	-49.7475	46.9365
13.88851	-45.6555	46.96582
13.89	-52.2071	46.9951
13.8925	-44.9393	47.0244
13.8945	-55.83289	47.0537
13.8979	-43.6088	47.083
13.89973	-55.5541	47.1123
13.9006	-42.6922	47.1416
13.9047	-53.4341	47.1709
13.9076	-44.103	47.2002
13.9101	-52.4258	47.2295
13.9122	-44.5963	47.2588
13.9138	-49.0417	47.2881
13.917	-48.1375	47.3174
13.9195	-47.8118	47.34668
13.9214	-46.8509	47.376
13.9244	-45.909	47.4053
13.9253	-53.8504	47.43457
13.9285	-44.1002	47.4639
13.9313	-51.7834	47.4932
13.9326	-43.5116	47.5225
13.9362	-56.1576	47.5518
13.9392	-43.0083	47.5811
13.9401	-51.3682	47.6104
13.9434	-41.3158	47.6396
13.94528	-55.1585	47.6689
13.9484	-42.2468	47.6982
13.95028	-50.6488	47.7275
13.9545	-44.2337	47.7568
13.9546	-53.1278	47.7861
13.95862	-44.6786	47.81543
13.961	-47.0055	47.8447
13.9625	-51.3764	47.874
13.966	-49.7248	47.90332
13.9672	-48.4034	47.9326
13.9693	-46.1267	47.9619
13.97299	-50.52158	47.9912
13.9759	-43.041	48.0205
13.9775	-51.9478	48.0498
13.9801	-44.2017	48.0791
13.9828	-53.517	48.1084
13.9844	-43.547	48.1377
13.9864	-51.7156	48.167
13.991	-42.3724	48.1963
13.99307	-50.23254	48.2256
13.9945	-44.5991	48.2549
13.9965	-50.3185	48.28418
13.9998	-45.9963	48.3135
14.0016	-45.6474	48.3428
14.004	-46.8521	48.37207
14.006	-47.007	48.4014
14.0093	-51.3519	48.4307
14.0118	-43.3696	48.46
14.014	-52.2347	48.4893
14.0169	-45.0278	48.5186
14.0186	-52.91674	48.5479
14.0222	-41.2565	48.5771
14.0239	-52.503	48.6064
14.0253	-50.2647	48.6162

File: 0.254_hd_uprint_typei_4545_r(5).dat
MTS793|BTW|ENU|1|2|.|/|:|1|0|0|A

Data Header:			0.254_hd_uprint_typei_4545_r0			Time:	20.0254	s	4/15/2019 4:15:39 PM
Data Acquisition:	Timed
Station Name:	ft40.cfg
Test File Name:	monotonic_0.2540_typei_hd_4545_uprint.tst
Displacement	Force	Running Time
mm	N	s
9.98003	-162.45	0.0302734
9.98125	-160.89	0.0986328
9.98703	-162.557	0.166992
9.99203	-163.019	0.235352
9.99785	-161.503	0.303711
10.0037	-164.169	0.37207
10.00981	-164.355	0.44043
10.0138	-161.498	0.508789
10.0196	-157.66	0.577148
10.0272	-154.231	0.645508
10.03264	-148.296	0.713867
10.037	-148.009	0.782227
10.0442	-148.745	0.850586
10.049	-146.414	0.918945
10.0558	-146.771	0.987305
10.0609	-148.792	1.05566
10.0667	-149.5594	1.12402
10.07324	-147.195	1.19238
10.07719	-145.9025	1.26074
10.0838	-140.384	1.3291
10.088	-133.07	1.39746
10.0949	-132.47	1.46582
10.1001	-131.3463	1.53418
10.1053	-130.374	1.60254
10.1121	-126.9432	1.6709
10.11773	-131.75	1.73926
10.1233	-129.426	1.80762
10.1285	-128.096	1.87598
10.1342	-130.316	1.94434
10.1394	-123.976	2.0127
10.1456	-116.852	2.08105
10.1516	-114.181	2.14941
10.1578	-114.844	2.21777
10.1636	-110.843	2.28613
10.1673	-106.4156	2.35449
10.1754	-109.231	2.42285
10.1804	-109.875	2.49121
10.18621	-107.7303	2.55957
10.1925	-109.26	2.62793
10.1974	-104.462	2.69629
10.2035	-98.4216	2.76465
10.2084	-95.7625	2.83301
10.2146	-94.1585	2.90137
10.21996	-87.7589	2.96973
10.2251	-82.8064	3.03809
10.2318	-84.701	3.10645
10.2366	-84.7889	3.1748
10.244	-83.5888	3.24316
10.2486	-84.5264	3.31152
10.2541	-82.0389	3.37988
10.2601	-77.07708	3.44824
10.265	-72.3201	3.5166
10.2713	-72.2499	3.58496
10.27672	-64.9076	3.65332
10.2831	-60.1187	3.72168
10.2889	-60.216	3.79004
10.2938	-60.1794	3.8584
10.3001	-58.5659	3.92676
10.3063	-56.9197	3.99512
10.3114	-56.4858	4.06348
10.3164	-53.7848	4.13184
10.3232	-52.1006	4.2002
10.3285	-47.6909	4.26855
10.3349	-40.1611	4.33691
10.3407	-36.1072	4.40527
10.3455	-34.32122	4.47363
10.35137	-33.1328	4.54199
10.357	-32.5332	4.61035
10.3634	-31.3268	4.67871
10.3698	-29.249	4.74707
10.3735	-29.3462	4.81543
10.38041	-27.8447	4.88379
10.3858	-24.3681	4.95215
10.3905	-15.0261	5.02051
10.3972	-12.67288	5.08887
10.40334	-8.52851	5.15723
10.4085	-5.40043	5.22559
10.4137	-5.47435	5.29395
10.4187	-3.17684	5.3623
10.4249	-1.24486	5.43066
10.4305	-1.83656	5.49902
10.436	-3.84062	5.56738
10.4422	3.67415	5.63574
10.449	10.4338	5.7041
10.4531	14.0787	5.77246
10.4592	19.5582	5.84082
10.4659	25.0129	5.90918
10.4707	24.0572	5.97754
10.4776	25.4312	6.0459
10.4814	28.5413	6.11426
10.4875	27.6782	6.18262
10.49439	25.6574	6.25098
10.4988	29.3544	6.31934
10.5045	38.5559	6.3877
10.511	39.4797	6.45605
10.5163	44.3776	6.52441
10.5224	52.0225	6.59277
10.5286	54.74456	6.66113
10.5327	56.2544	6.72949
10.5384	60.2411	6.79785
10.5459	58.5855	6.86621
10.5504	54.024	6.93457
10.5561	58.0879	7.00293
10.5622	65.5228	7.07129
10.568	67.2153	7.13965
10.5736	72.0813	7.20801
10.5792	79.7804	7.27637
10.5842	81.7622	7.34473
10.59	86.7133	7.41309
10.5964	87.9538	7.48145
10.601	88.8659	7.5498
10.6072	84.9451	7.61816
10.6148	87.9884	7.68652
10.6195	92.7753	7.75488
10.6244	95.762	7.82324
10.63078	99.9677	7.8916
10.63636	108.391	7.95996
10.6419	109.954	8.02832
10.6472	116.365	8.09668
10.6528	121.334	8.16504
10.6585	117.971	8.2334
10.6651	115.338	8.30176
10.66988	117.068	8.37012
10.67625	121.735	8.43848
10.682	124.06	8.50684
10.6882	128.395	8.5752
10.69429	132.664	8.64355
10.6982	137.713	8.71191
10.7044	145.051	8.78027
10.7101	147.2562	8.84863
10.7166	147.596	8.91699
10.7221	147.902	8.98535
10.7275	149.999	9.05371
10.7316	150.757	9.12207
10.73785	151.902	9.19043
10.7444	157.507	9.25879
10.7511	160.469	9.32715
10.755	165.315	9.39551
10.7611	174.73	9.46387
10.7665	178.554	9.53223
10.773	177.476	9.60059
10.7791	177.811	9.66895
10.7831	180.437	9.7373
10.7899	181.24	9.80566
10.79542	179.618	9.87402
10.8011	183.56	9.94238
10.80591	190.277	10.0107
10.81321	192.92	10.0791
10.8177	200.971	10.1475
10.8232	206.53	10.21582
10.8297	206.449	10.28418
10.8352	208.144	10.3525
10.8412	212.815	10.4209
10.84713	212.725	10.4893
10.8525	211.654	10.5576
10.8574	214.197	10.626
10.8644	217.3512	10.6943
10.8699	222.004	10.7627
10.8751	226.651	10.8311
10.8807	235.512	10.8994
10.8879	237.415	10.9678
10.8931	237.849	11.0361
10.8976	242.662	11.1045
10.90309	242.476	11.1729
10.9095	242.257	11.2412
10.9153	244.449	11.30957
10.9211	245.739	11.37793
10.9268	250.0414	11.4463
10.9318	254.398	11.5146
10.9375	262.303	11.583
10.944	265.631	11.6514
10.94947	267.011	11.7197
10.95495	275.302	11.7881
10.9601	275.525	11.8564
10.9659	273.423	11.9248
10.9728	273.493	11.9932
10.9765	274.55	12.0615
10.9821	277.938	12.1299
10.9887	282.346	12.1982
10.995	288.751	12.2666
10.9997	291.638	12.335
11.0053	296.927	12.40332
11.0131	302.6026	12.47168
11.0175	303.937	12.54
11.0228	304.447	12.6084
11.0293	304.29	12.6768
11.0352	302.437	12.7451
11.0402	306.5708	12.8135
11.0467	309.11	12.8818
11.0512	314.448	12.9502
11.0563	318.7196	13.0186
11.0636	323.776	13.0869
11.0694	333.974	13.1553
11.0749	333.104	13.2236
11.08039	335.135	13.292
11.0867	334.438	13.3604
11.0918	333.71	13.4287
11.0978	336.979	13.49707
11.1029	339.401	13.56543
11.1078	342.235	13.6338
11.1156	343.486	13.7021
11.1214	350.772	13.7705
11.1254	359.348	13.8389
11.1312	359.152	13.9072
11.136	363.955	13.9756
11.1434	366.748	14.0439
11.14899	366.265	14.1123
11.1543	366.932	14.1807
11.15983	367.312	14.249
11.16648	369.007	14.3174
11.1712	369.8692	14.3857
11.1774	378.713	14.4541
11.1832	386.566	14.5225
11.1881	387.397	14.59082
11.1939	391.339	14.65918
11.1997	397.001	14.7275
11.2057	394.51	14.7959
11.21041	394.633	14.8643
11.21817	398.257	14.9326
11.222	397.276	15.001
11.2276	395.874	15.0693
11.2334	401.02	15.1377
11.2407	410.313	15.2061
11.2463	414.503	15.2744
11.25075	418.441	15.3428
11.2563	424.409	15.4111
11.2629	424.985	15.4795
11.2682	423.957	15.5479
11.2748	424.42	15.6162
11.2792	424.826	15.68457
11.2845	423.991	15.75293
11.2914	427.756	15.8213
11.2967	437.919	15.8896
11.3033	440.25	15.958
11.3079	444.845	16.0264
11.3127	451.568	16.0947
11.31929	451.674	16.1631
11.3236	454.8176	16.2314
11.3313	453.175	16.2998
11.3369	452.161	16.3682
11.3428	452.6	16.4365
11.3483	455.311	16.5049
11.3539	462.116	16.5732
11.3597	463.988	16.6416
11.3658	471.288	16.71
11.3704	475.42	16.77832
11.3757	479.319	16.84668
11.3821	481.833	16.915
11.38785	482.986	16.9834
11.3936	480.841	17.0518
11.3988	479.2269	17.1201
11.4044	482.291	17.1885
11.41	486.427	17.2568
11.4167	490.211	17.3252
11.42252	495.117	17.3936
11.4273	502.269	17.4619
11.433	505.5126	17.5303
11.439	510.777	17.5986
11.4448	511.245	17.667
11.4513	508.209	17.7354
11.4572	507.949	17.8037
11.4616	511.081	17.87207
11.4672	512.9953	17.94043
11.4739	513.477	18.0088
11.4788	520.753	18.0771
11.4846	524.433	18.1455
11.4897	529.219	18.2139
11.4964	534.889	18.2822
11.5012	540.45	18.3506
11.5072	536.673	18.4189
11.5131	534.467	18.4873
11.5178	538.331	18.5557
11.5247	536.553	18.624
11.5303	538.407	18.6924
11.5362	543.188	18.7607
11.5422	549	18.8291
11.5472	553.803	18.8975
11.5532	558.488	18.96582
11.5573	564.5686	19.03418
11.5641	562.609	19.1025
11.5703	562.02	19.1709
11.5753	565.618	19.2393
11.5807	563.649	19.3076
11.5869	562.107	19.376
11.5936	567.492	19.4443
11.5994	571.74	19.5127
11.6043	577.259	19.5811
11.6093	582.47	19.6494
11.6153	588.433	19.7178
11.6216	587.171	19.7861
11.6288	587.4	19.8545
[...]
15.50648	903.152	66.417
15.5123	904.7749	66.4756
15.5162	905.442	66.53418
15.522	904.688	66.5928
15.527	903.078	66.6514
15.532	902.07	66.71
15.536	899.818	66.7686
15.54142	897.509	66.8271
15.5465	897.232	66.8857
15.5496	893.4292	66.9443
15.5563	895.584	67.00293
15.5609	893.773	67.0615
15.5651	897.427	67.1201
15.57017	895.7	67.1787
15.5752	901.588	67.2373
15.58	899.62	67.2959
15.5853	903.956	67.3545
15.5892	904.918	67.4131
15.5951	905.164	67.47168
15.5992	905.145	67.5303
15.6048	904.123	67.5889
15.6094	903.639	67.6475
15.6138	900.834	67.7061
15.6185	901.634	67.7646
15.6249	896.366	67.8232
15.6298	896.584	67.8818
15.6338	896.44	67.94043
15.639	897.007	67.999
15.6438	897.7276	68.0576
15.6486	899.173	68.1162
15.6526	902.33	68.1748
15.6578	900.753	68.2334
15.6625	906.17	68.292
15.6691	904.543	68.3506
15.67347	907.057	68.40918
15.6774	906.179	68.4678
15.6835	905.25	68.5264
15.68814	901.116	68.585
15.6917	898.748	68.6436
15.6977	899.337	68.7021
15.7021	894.97	68.7607
15.7074	894.324	68.8193
15.712	893.401	68.87793
15.7163	894.227	68.9365
15.7227	892.844	68.9951
15.7268	898.473	69.0537
15.7315	896.071	69.1123
15.73688	900.956	69.1709
15.7411	902.631	69.2295
15.7465	904.459	69.2881
15.751	903.556	69.34668
15.7568	906.833	69.4053
15.7616	901.618	69.4639
15.7657	901.938	69.5225
15.7707	901.69	69.5811
15.7752	898.509	69.6396
15.78	896.354	69.6982
15.7845	895.455	69.7568
15.7907	896.164	69.81543
15.795	894.068	69.874
15.8005	896.594	69.9326
15.8045	898.795	69.9912
15.8097	898.459	70.0498
15.8148	902.951	70.1084
15.8194	904.041	70.167
15.8244	905.544	70.2256
15.83054	905.728	70.28418
15.8339	906.72	70.3428
15.8391	901.379	70.4014
15.8434	901.344	70.46
15.8497	898.587	70.5186
15.8531	894.831	70.5771
15.8587	894.7066	70.6357
15.8649	892.716	70.6943
15.86795	891.989	70.75293
15.8731	891.32	70.8115
15.8774	894.891	70.8701
15.8818	893.744	70.9287
15.8867	899.623	70.9873
15.8934	897.396	71.0459
15.8972	901.464	71.1045
15.9024	903.104	71.1631
15.9071	905.027	71.22168
15.9114	901.466	71.2803
15.9161	902.546	71.3389
15.9217	902.017	71.3975
15.9262	897.0412	71.4561
15.931	897.474	71.5146
15.93611	896.9054	71.5732
15.9419	894.733	71.6318
15.9461	892.235	71.69043
15.9509	895.348	71.749
15.9561	895.056	71.8076
15.9606	894.878	71.8662
15.9655	900.409	71.9248
15.97083	900.342	71.9834
15.9761	903.54	72.042
15.9802	902.816	72.1006
15.9859	903.9895	72.15918
15.9915	900.79	72.2178
15.9953	902.894	72.2764
16	897.216	72.335
16.0048	895.423	72.3936
16.0097	894.488	72.4521
16.0146	890.094	72.5107
16.0195	888.657	72.5693
16.0242	889.448	72.62793
16.0295	891.272	72.6865
16.0359	889.178	72.7451
16.0391	893.452	72.8037
16.0431	888.5	72.8623
16.0533	-43.9998	72.9209
16.0549	-48.3961	72.9795
16.0605	-41.6156	73.0381
16.0638	-44.1988	73.09668
16.0685	-43.98951	73.1553
16.0751	-45.0184	73.2139
16.0811	-47.2854	73.2725
16.0837	-47.1961	73.3311
16.089	-51.815	73.3896
16.0934	-51.9567	73.4482
16.0973	-53.9001	73.5068
16.1023	-52.0951	73.56543
16.1078	-52.0558	73.624
16.1116	-50.8724	73.6826
16.1178	-47.5199	73.7412
16.1228	-47.808	73.7998
16.1268	-44.5251	73.8584
16.1321	-43.4942	73.917
16.13731	-42.1122	73.9756
16.142	-43.0622	74.03418
16.1468	-40.1391	74.0928
16.1531	-45.4393	74.1514
16.1575	-45.6459	74.21
16.1604	-47.6097	74.2686
16.1664	-49.3888	74.3271
16.1711	-52.4463	74.3857
16.1761	-54.5802	74.4443
16.1815	-52.4572	74.50293
16.1868	-56.5004	74.5615
16.1901	-49.6859	74.6201
16.1958	-52.70668	74.6787
16.2004	-47.8095	74.7373
16.2064	-45.8851	74.7959
16.2106	-43.484	74.8545
16.2161	-45.917	74.9131
16.2196	-40.6918	74.97168
16.2247	-42.96957	75.0303
16.2302	-45.9169	75.0889
16.2341	-47.2685	75.1475
16.2379	-53.0412	75.1865