Folder: Stress_Strain_Analysis_Tools/data/processed_data_files/tensile (part 28)

File: 0.254_hd_uprint_typeiv_4545_r(8).dat
MTS793|BTW|ENU|1|2|.|/|:|1|0|0|A

Data Header:			0.254_hd_uprint_typeiv_4545_r0			Time:	20.0176	s	4/13/2019 7:50:51 PM
Data Acquisition:	Timed
Station Name:	ft40.cfg
Test File Name:	monotonic_0.2540_typeiv_hd_4545_uprint.tst
Displacement	Force	Running Time
mm	N	s
-40.0344	-277.482	0.0227051
-40.0351	-277.646	0.0910645
-40.0274	-274.272	0.159424
-40.0233	-271.466	0.2277832
-40.01757	-267.2	0.296143
-40.0121	-267.811	0.364502
-40.0072	-265.781	0.432861
-40.0012	-263.816	0.5012207
-39.9937	-262.1	0.56958
-39.989	-259.5	0.637939
-39.98362	-250.666	0.706299
-39.9783	-247.222	0.7746582
-39.9719	-244.145	0.843018
-39.96698	-238.9628	0.911377
-39.9609	-235.714	0.979736
-39.9548	-232.279	1.0481
-39.9496	-231.122	1.11646
-39.94352	-230.8425	1.18481
-39.9387	-232.197	1.25317
-39.9317	-225.988	1.32153
-39.92577	-219.485	1.38989
-39.9208	-216.145	1.458252
-39.9141	-209.787	1.52661
-39.9086	-205.421	1.59497
-39.9039	-202.315	1.66333
-39.8973	-197.672	1.73169
-39.89212	-196.677	1.80005
-39.8861	-199.416	1.86841
-39.8808	-196.699	1.93677
-39.8752	-191.349	2.005127
-39.8697	-189.227	2.07349
-39.8641	-185.047	2.14185
-39.8587	-177.042	2.21021
-39.8524	-173.504	2.27856
-39.8462	-167.609	2.34692
-39.8411	-162.9279	2.41528
-39.8367	-162.29	2.48364
-39.8302	-164.879	2.552002
-39.8248	-161.442	2.62036
-39.8192	-156.369	2.68872
-39.8132	-155.492	2.75708
-39.8077	-150.634	2.82544
-39.8009	-145.091	2.8938
-39.79636	-142.622	2.96216
-39.7891	-136.626	3.03052
-39.78418	-130.7	3.098877
-39.7787	-129.503	3.16724
-39.7721	-130.952	3.2356
-39.7669	-126.313	3.30396
-39.76189	-123.979	3.37231
-39.7555	-124.158	3.44067
-39.7505	-119.838	3.50903
-39.7434	-113.0071	3.57739
-39.7382	-110.755	3.645752
-39.7335	-103.016	3.71411
-39.7268	-97.73642	3.78247
-39.7206	-95.5151	3.85083
-39.7178	-98.7926	3.91919
-39.7093	-91.0655	3.98755
-39.7047	-89.2994	4.05591
-39.6984	-89.76123	4.12427
-39.6935	-86.9839	4.192627
-39.6882	-80.7097	4.26099
-39.6822	-76.2892	4.32935
-39.6758	-71.2817	4.39771
-39.6701	-66.2825	4.46606
-39.6642	-63.5778	4.53442
-39.6594	-62.7356	4.60278
-39.6548	-54.6489	4.67114
-39.6463	-55.6274	4.739502
-39.6411	-56.3487	4.80786
-39.636	-52.5284	4.87622
-39.6307	-47.6085	4.94458
-39.6249	-45.0851	5.01294
-39.6192	-38.6458	5.0813
-39.61388	-33.1813	5.14966
-39.6075	-32.7413	5.21802
-39.603	-27.38221	5.286377
-39.597	-21.2165	5.35474
-39.59029	-21.1995	5.4231
-39.5857	-18.44915	5.49146
-39.5791	-18.3061	5.55981
-39.5736	-16.1825	5.62817
-39.5672	-13.7328	5.69653
-39.5617	-7.71102	5.76489
-39.5557	-5.20862	5.833252
-39.5506	-1.24713	5.90161
-39.5446	4.74491	5.96997
-39.5389	11.2064	6.03833
-39.533	11.3418	6.10669
-39.5278	13.9309	6.17505
-39.5228	14.5237	6.24341
-39.5163	15.79	6.31177
-39.5109	21.4858	6.380127
-39.5056	23.8001	6.44849
-39.5003	26.137	6.51685
-39.4937	30.7626	6.58521
-39.4883	40.1094	6.65356
-39.4821	42.4651	6.72192
-39.4761	44.5621	6.79028
-39.4711	49.8652	6.85864
-39.4649	49.55595	6.927002
-39.4593	50.9269	6.99536
-39.4529	53.3694	7.06372
-39.4481	56.44659	7.13208
-39.4416	55.8596	7.20044
-39.4364	61.8988	7.2688
-39.4317	71.1499	7.33716
-39.4261	73.5513	7.40552
-39.4193	77.8502	7.473877
-39.41357	82.5041	7.54224
-39.4084	80.6667	7.6106
-39.4026	83.5389	7.67896
-39.3963	87.7931	7.74731
-39.3914	86.6796	7.81567
-39.3859	86.1601	7.88403
-39.3795	95.803	7.95239
-39.3746	102.619	8.020752
-39.368	102.6804	8.08911
-39.3623	109.55	8.15747
-39.3562	115.618	8.22583
-39.3525	113.665	8.29419
-39.3467	118.194	8.36255
-39.3398	120.402	8.43091
-39.3348	121.68	8.49927
-39.3284	119.749	8.567627
-39.3227	126.932	8.63599
-39.3175	133.03	8.70435
-39.3116	133.9361	8.77271
-39.3061	139.658	8.84106
-39.3005	145.933	8.90942
-39.2944	148.813	8.97778
-39.2874	150.807	9.04614
-39.2828	151.748	9.114502
-39.27673	151.3065	9.18286
-39.2723	150.915	9.25122
-39.2657	159.0423	9.31958
-39.2596	162.4	9.38794
-39.2551	166.018	9.4563
-39.2494	172.083	9.52466
-39.2441	175.818	9.59302
-39.2372	179.356	9.661377
-39.2324	183.117	9.72974
-39.2256	185.568	9.7981
-39.2205	182.487	9.86646
-39.2149	184.374	9.93481
-39.209	189.725	10.0032
-39.2029	192.916	10.0715
-39.1975	196.57	10.1399
-39.1926	201.888	10.2083
-39.1853	206.554	10.2766
-39.1793	209.74	10.345
-39.1744	216.769	10.41333
-39.1697	215.556	10.4817
-39.1639	215.482	10.55
-39.1575	217.531	10.6184
-39.1519	219.743	10.6868
-39.1467	221.749	10.7551
-39.1405	225.0135	10.8235
-39.1346	229.861	10.8918
-39.1286	235.036	10.9602
-39.1236	242.468	11.0286
-39.11673	246.502	11.0969
-39.1134	246.162	11.1653
-39.1064	249.253	11.2336
-39.1008	253.407	11.302
-39.09444	251.472	11.3704
-39.0894	253.506	11.4387
-39.084	257.107	11.50708
-39.0781	259.763	11.5754
-39.0723	264.112	11.6438
-39.0674	271.009	11.7122
-39.0602	274.277	11.7805
-39.0559	276.385	11.8489
-39.0494	277.408	11.9172
-39.04332	284.162	11.9856
-39.038	283.057	12.054
-39.03249	281.9201	12.1223
-39.0263	287.897	12.1907
-39.02087	289.041	12.259
-39.016	294.2569	12.3274
-39.0103	300.9325	12.3958
-39.005	302.5079	12.4641
-38.9978	306.006	12.5325
-38.9918	309.835	12.60083
-38.987	313.861	12.6692
-38.9812	311.386	12.7375
-38.97401	313.915	12.8059
-38.96825	317.91	12.8743
-38.9645	318.261	12.9426
-38.9584	321.562	13.011
-38.953	328.04	13.0793
-38.9463	331.215	13.1477
-38.9413	332.111	13.2161
-38.9357	339.948	13.2844
-38.9295	343.965	13.3528
-38.9244	342.106	13.4211
-38.9192	343.2496	13.4895
-38.9134	345.441	13.5579
-38.9072	347.2392	13.6262
-38.9016	350.673	13.69458
-38.89595	353.554	13.7629
-38.8901	355.343	13.8313
-38.8854	360.436	13.8997
-38.87899	365.9884	13.968
-38.8727	371.858	14.0364
-38.8673	371.713	14.1047
-38.8609	371.1976	14.1731
-38.8553	374.035	14.2415
-38.8508	375.0701	14.3098
-38.844	375.675	14.3782
-38.8386	380.679	14.4465
-38.8321	382.438	14.5149
-38.8275	386.32	14.5833
-38.82056	394.343	14.6516
-38.8168	396.402	14.72
-38.8097	400.086	14.78833
-38.8051	401.253	14.8567
-38.7977	400.968	14.925
-38.7932	403.118	14.9934
-38.7881	404.363	15.0618
-38.7818	403.781	15.1301
-38.77663	405.988	15.1985
-38.77042	411.098	15.2668
-38.7638	416.872	15.3352
-38.7584	419.839	15.4036
-38.7531	424.3974	15.4719
-38.74728	427.135	15.5403
-38.742	426.585	15.6086
-38.73695	428.28	15.677
-38.7311	430.154	15.7454
-38.7244	427.425	15.8137
-38.7187	429.923	15.88208
-38.7127	435.177	15.9504
-38.708	440.987	16.0188
-38.7017	443.892	16.0872
-38.69574	448.496	16.1555
-38.6908	451.035	16.2239
-38.6854	450.673	16.2922
-38.6785	455.618	16.3606
-38.6733	454.702	16.429
-38.6679	451.948	16.4973
-38.6625	451.821	16.5657
-38.6571	456.927	16.634
-38.6498	460.013	16.7024
-38.6447	462.475	16.7708
-38.6403	468.2991	16.8391
-38.63364	471.812	16.9075
-38.6288	472.097	16.97583
-38.6223	475.885	17.0442
-38.6164	475.3508	17.1125
-38.6107	471.991	17.1809
-38.6055	471.991	17.2493
-38.6005	477.281	17.3176
-38.5942	477.2269	17.386
-38.5884	480.828	17.4543
-38.5825	485.649	17.5227
-38.5765	489.291	17.5911
-38.5701	491.652	17.6594
-38.5656	494.049	17.7278
-38.56	493.125	17.7961
-38.5536	489.709	17.8645
-38.5484	491.627	17.9329
-38.5427	494.97	18.0012
-38.5373	493.6611	18.06958
-38.5318	495.203	18.1379
-38.5247	500.894	18.2063
-38.5198	502.812	18.2747
-38.5134	505.462	18.343
-38.5071	508.85	18.4114
-38.5025	508.217	18.4797
-38.4977	504.101	18.5481
-38.49	505.278	18.6165
-38.4856	506.594	18.6848
-38.4799	504.03	18.7532
-38.4745	506.12	18.8215
-38.4674	508.003	18.8899
-38.4633	511.9921	18.9583
[...]
-37.1669	484.699	34.5149
-37.1608	484.5	34.5833
-37.1552	487.01	34.6516
-37.1491	488.863	34.72
-37.1437	489	34.78833
-37.13723	489.342	34.8567
-37.13105	486.349	34.925
-37.1266	482.723	34.9934
-37.1213	481.222	35.0618
-37.1157	483.852	35.1301
-37.1095	481.535	35.1985
-37.1034	482.634	35.2668
-37.0982	487.4462	35.3352
-37.0919	486.51	35.4036
-37.087	487.721	35.4719
-37.08078	489.65	35.5403
-37.0755	488.214	35.6086
-37.0688	482.311	35.677
-37.0642	480.2951	35.7454
-37.0585	481.4068	35.8137
-37.05286	480.056	35.88208
-37.0473	480.16	35.9504
-37.0416	483.517	36.0188
-37.0352	484.559	36.0872
-37.0287	487.19	36.1555
-37.0235	488.485	36.2239
-37.0166	488.692	36.2922
-37.0137	482.236	36.3606
-37.0074	480.289	36.429
-37.0011	481.373	36.4973
-36.9963	476.2	36.5657
-36.989	478.47	36.634
-36.9852	482.185	36.7024
-36.9781	480.656	36.7708
-36.9724	483.959	36.8391
-36.9673	487.0719	36.9075
-36.9619	486.814	36.97583
-36.9556	481.41	37.0442
-36.9497	480.33	37.1125
-36.9451	480.647	37.1809
-36.93755	475.459	37.2493
-36.9328	475.6879	37.3176
-36.9279	477.562	37.386
-36.9216	477.833	37.4543
-36.91534	479.567	37.5227
-36.9102	483.462	37.5911
-36.9046	482.5853	37.6594
-36.8987	479.345	37.7278
-36.8934	480.871	37.7961
-36.8874	479.434	37.8645
-36.88092	475.442	37.9329
-36.87619	472.578	38.0012
-36.8702	473.962	38.06958
-36.8648	473.567	38.1379
-36.8592	477.158	38.2063
-36.8533	477.407	38.2747
-36.8479	476.149	38.343
-36.8404	473.888	38.4114
-36.8356	475.832	38.4797
-36.83157	472.739	38.5481
-36.824	467.869	38.6165
-36.8188	463.06	38.6848
-36.8135	458.369	38.7532
-36.8047	-20.3089	38.8215
-36.8014	-41.8615	38.8899
-36.7967	-40.5271	38.9583
-36.7893	-42.0091	39.0266
-36.7846	-38.72345	39.095
-36.7788	-35.6522	39.16333
-36.7732	-39.4214	39.2317
-36.7677	-41.253	39.3
-36.7618	-42.0095	39.3684
-36.7559	-45.3943	39.4368
-36.7495	-44.1323	39.5051
-36.7454	-43.5377	39.5735
-36.7385	-42.2023	39.6418
-36.7329	-43.2475	39.7102
-36.72826	-40.41626	39.7786
-36.72208	-36.673	39.8469
-36.7154	-38.9842	39.9153
-36.7114	-40.0051	39.9836
-36.70808	-42.9767	40.0129

Data Header:			0.254_hd_uprint_typeiv_4545_r0			Time:	40.5374	s	4/13/2019 7:51:11 PM
Data Acquisition:	Timed
Station Name:	ft40.cfg
Test File Name:	monotonic_0.2540_typeiv_hd_4545_uprint.tst
Displacement	Force	Running Time
mm	N	s
-36.708	-40.5025	40.0227
-36.7069	-38.10376	40.0325
-36.7054	-37.8936	40.0422
-36.7055	-39.9484	40.052
-36.7038	-46.6914	40.0618
-36.70306	-43.9664	40.0715
-36.7021	-41.6977	40.0813
-36.7026	-36.5872	40.0911
-36.7011	-37.5437	40.10083
-36.7004	-42.1294	40.1106
-36.6996	-44.6302	40.1204
-36.6981	-42.8334	40.1301
-36.6972	-42.1448	40.1399
-36.6962	-38.975	40.1497
-36.6963	-37.976	40.1594
-36.695	-38.2659	40.1692
-36.6946	-42.6713	40.179
-36.6933	-43.5638	40.1887
-36.6936	-45.14	40.1985
-36.69228	-40.712	40.2083
-36.69128	-39.9451	40.218
-36.69022	-38.9411	40.2278
-36.6897	-40.9927	40.2375
-36.6878	-43.3334	40.2473
-36.68692	-42.2921	40.25708
-36.688	-43.8833	40.2668
-36.6865	-41.8282	40.2766
-36.685	-37.0979	40.2864
-36.6836	-39.4121	40.2961
-36.6844	-40.7097	40.3059
-36.6827	-45.2551	40.3157
-36.6824	-44.0743	40.3254
-36.6811	-38.7843	40.3352
-36.6803	-41.3955	40.345
-36.6784	-35.316	40.3547
-36.6791	-42.19083	40.3645
-36.6773	-42.7986	40.3743
-36.677	-44.491	40.384
-36.6775	-46.6388	40.3938
-36.6757	-38.8981	40.4036
-36.6742	-36.24337	40.41333
-36.6734	-38.7057	40.4231
-36.6726	-42.4136	40.4329
-36.6727	-45.1296	40.4426
-36.672	-41.7947	40.4524
-36.6697	-40.4602	40.4622
-36.66983	-36.7334	40.4719
-36.6688	-38.3161	40.4817
-36.6691	-39.8914	40.4915
-36.6678	-45.5927	40.5012
-36.6668	-45.8842	40.511
-36.6655	-42.7299	40.5208
-36.6646	-36.9069	40.5305

File: 0.254_hd_uprint_typeiv_4545_r(9).dat
MTS793|BTW|ENU|1|2|.|/|:|1|0|0|A

Data Header:			0.254_hd_uprint_typeiv_4545_r0			Time:	20.0178	s	4/13/2019 7:55:32 PM
Data Acquisition:	Timed
Station Name:	ft40.cfg
Test File Name:	monotonic_0.2540_typeiv_hd_4545_uprint.tst
Displacement	Force	Running Time
mm	N	s
-40.0349	-255.454	0.0227051
-40.032	-251.064	0.0910645
-40.02536	-250.872	0.159424
-40.0214	-247.4184	0.2277832
-40.01437	-239.428	0.296143
-40.0097	-236.526	0.364502
-40.0039	-231.205	0.432861
-39.9977	-226.3808	0.5012207
-39.9925	-222.204	0.56958
-39.9868	-226.321	0.637939
-39.9818	-223.1922	0.706299
-39.975	-216.731	0.7746582
-39.96867	-217.312	0.843018
-39.9637	-213.94	0.911377
-39.95821	-208.491	0.979736
-39.9519	-203.876	1.0481
-39.9462	-197.644	1.11646
-39.9411	-194.392	1.18481
-39.9348	-190.885	1.25317
-39.9295	-190.257	1.32153
-39.9242	-187.096	1.38989
-39.9193	-184.423	1.458252
-39.9124	-184.025	1.52661
-39.9068	-181.233	1.59497
-39.9015	-176.177	1.66333
-39.8954	-171.667	1.73169
-39.8896	-165.087	1.80005
-39.8842	-160.697	1.86841
-39.8793	-157.996	1.93677
-39.8728	-155.2812	2.005127
-39.8666	-150.992	2.07349
-39.8615	-150.548	2.14185
-39.8558	-149.353	2.21021
-39.8497	-148.186	2.27856
-39.8439	-145.961	2.34692
-39.8377	-140.699	2.41528
-39.83247	-132.9998	2.48364
-39.8273	-129.769	2.552002
-39.8219	-125.529	2.62036
-39.8155	-121.186	2.68872
-39.8094	-116.522	2.75708
-39.8052	-115.701	2.82544
-39.7977	-115.5904	2.8938
-39.7929	-111.9861	2.96216
-39.7873	-111.208	3.03052
-39.7813	-106.084	3.098877
-39.7769	-101.82	3.16724
-39.77161	-97.4638	3.2356
-39.7656	-95.6411	3.30396
-39.7578	-87.50692	3.37231
-39.753	-81.8259	3.44067
-39.7483	-83.9267	3.50903
-39.7419	-79.2879	3.57739
-39.7362	-76.3766	3.645752
-39.7309	-78.7144	3.71411
-39.7245	-74.3966	3.78247
-39.72	-68.1822	3.85083
-39.7137	-68.4076	3.91919
-39.7079	-63.3317	3.98755
-39.70295	-54.4048	4.05591
-39.6955	-50.089	4.12427
-39.6894	-50.7871	4.192627
-39.6839	-46.2306	4.26099
-39.6795	-43.7446	4.32935
-39.6733	-43.9591	4.39771
-39.6675	-42.4314	4.46606
-39.6618	-36.1771	4.53442
-39.6563	-36.2852	4.60278
-39.6512	-30.8727	4.67114
-39.6448	-23.33667	4.739502
-39.6383	-19.5901	4.80786
-39.6321	-16.69314	4.87622
-39.6276	-12.5547	4.94458
-39.6226	-9.74947	5.01294
-39.6173	-10.725	5.0813
-39.611	-8.25371	5.14966
-39.6038	-4.15534	5.21802
-39.5985	-4.71985	5.286377
-39.594	-1.39826	5.35474
-39.5895	8.77796	5.4231
-39.5813	11.59	5.49146
-39.5769	15.6934	5.55981
-39.5705	20.1633	5.62817
-39.5668	21.4545	5.69653
-39.5592	25.1921	5.76489
-39.5535	28.0259	5.833252
-39.5479	27.8331	5.90161
-39.5417	28.3659	5.96997
-39.5363	32.5042	6.03833
-39.53109	38.2073	6.10669
-39.52557	43.2296	6.17505
-39.5195	48.1173	6.24341
-39.5137	50.9779	6.31177
-39.50806	55.7643	6.380127
-39.5025	59.0314	6.44849
-39.4967	61.78368	6.51685
-39.4912	58.6868	6.58521
-39.4855	59.998	6.65356
-39.4794	66.6567	6.72192
-39.4747	69.5151	6.79028
-39.469	73.445	6.85864
-39.4634	81.1962	6.927002
-39.4578	84.1521	6.99536
-39.4513	89.5229	7.06372
-39.4464	92.3621	7.13208
-39.4401	93.7493	7.20044
-39.43457	91.8145	7.2688
-39.4276	95.151	7.33716
-39.4232	99.1196	7.40552
-39.4183	100.9035	7.473877
-39.4112	104.046	7.54224
-39.4052	111.442	7.6106
-39.4007	115.019	7.67896
-39.394	120.073	7.74731
-39.3885	124.845	7.81567
-39.3827	126.216	7.88403
-39.3763	125.239	7.95239
-39.3719	127.985	8.020752
-39.3652	131.966	8.08911
-39.3598	132.123	8.15747
-39.3539	134.556	8.22583
-39.349	142.71	8.29419
-39.342	146.653	8.36255
-39.3371	150.431	8.43091
-39.33215	157.106	8.49927
-39.3252	159.947	8.567627
-39.319	156.98	8.63599
-39.3152	161.882	8.70435
-39.3087	165.303	8.77271
-39.3043	161.88	8.84106
-39.2966	165.355	8.90942
-39.2914	173.308	8.97778
-39.2859	174.765	9.04614
-39.28162	180.364	9.114502
-39.274	185.802	9.18286
-39.2692	189.721	9.25122
-39.2633	189.156	9.31958
-39.2579	193.9874	9.38794
-39.2512	196.117	9.4563
-39.2459	193.561	9.52466
-39.2411	195.774	9.59302
-39.2354	200.003	9.661377
-39.2291	205.831	9.72974
-39.22271	209.597	9.7981
-39.218	215.724	9.86646
-39.2124	217.688	9.93481
-39.2061	221.28	10.0032
-39.2005	225.595	10.0715
-39.1956	226.358	10.1399
-39.1893	225.6358	10.2083
-39.1831	227.709	10.2766
-39.17836	231.992	10.345
-39.1735	236.12	10.41333
-39.1665	242.115	10.4817
-39.1615	246.094	10.55
-39.1547	248.2	10.6184
-39.1494	251.914	10.6868
-39.1436	257.807	10.7551
-39.1385	259.178	10.8235
-39.1328	258.695	10.8918
-39.1269	258.8414	10.9602
-39.1218	261.127	11.0286
-39.1159	267.0416	11.0969
-39.1108	270.925	11.1653
-39.1048	272.18	11.2336
-39.098	277.242	11.302
-39.0936	282.046	11.3704
-39.0868	287.428	11.4387
-39.0814	288.007	11.50708
-39.0745	290.1904	11.5754
-39.0707	290.5683	11.6438
-39.0639	290.728	11.7122
-39.0583	295.954	11.7805
-39.0526	299.95	11.8489
-39.0471	299.801	11.9172
-39.0415	303.551	11.9856
-39.0362	312.024	12.054
-39.02998	315.924	12.1223
-39.0252	315.895	12.1907
-39.0194	319.8793	12.259
-39.01329	321.006	12.3274
-39.00816	321.266	12.3958
-39.0017	323.919	12.4641
-38.9958	326.989	12.5325
-38.99	325.309	12.60083
-38.9844	331.426	12.6692
-38.9787	340.1824	12.7375
-38.9723	342.86	12.8059
-38.9683	344.217	12.8743
-38.96088	348.068	12.9426
-38.9557	349.421	13.011
-38.95145	350.211	13.0793
-38.94545	352.986	13.1477
-38.9394	353.37	13.2161
-38.9334	351.858	13.2844
-38.9271	357.466	13.3528
-38.9221	365.504	13.4211
-38.9151	366.1145	13.4895
-38.9106	369.648	13.5579
-38.9043	375.6543	13.6262
-38.8992	378.145	13.69458
-38.8929	378.408	13.7629
-38.888	380.145	13.8313
-38.88168	380.528	13.8997
-38.877	378.778	13.968
-38.8709	382.171	14.0364
-38.8652	388.644	14.1047
-38.859	392.303	14.1731
-38.8539	395.521	14.2415
-38.8475	400.546	14.3098
-38.8411	404.518	14.3782
-38.8358	404.851	14.4465
-38.831	405.312	14.5149
-38.8252	404.8851	14.5833
-38.8199	405.656	14.6516
-38.8131	406.926	14.72
-38.807	412.9917	14.78833
-38.8015	414.692	14.8567
-38.7964	420.151	14.925
-38.791	423.894	14.9934
-38.7853	429.282	15.0618
-38.7786	430.976	15.1301
-38.7743	431.93	15.1985
-38.7671	429.058	15.2668
-38.7634	428.386	15.3352
-38.7578	433.815	15.4036
-38.751	434.7948	15.4719
-38.74535	437.602	15.5403
-38.7393	441.914	15.6086
-38.7341	444.4599	15.677
-38.7287	450.364	15.7454
-38.7219	453.786	15.8137
-38.7163	453.1532	15.88208
-38.7115	449.588	15.9504
-38.7061	452.752	16.0188
-38.7007	455.182	16.0872
-38.6952	453.8685	16.1555
-38.6881	455.958	16.2239
-38.6834	460.781	16.2922
-38.6768	461.295	16.3606
-38.6709	467.444	16.429
-38.6657	472.9917	16.4973
-38.6585	472.191	16.5657
-38.6544	470.267	16.634
-38.6483	471.928	16.7024
-38.643	473.601	16.7708
-38.6382	469.293	16.8391
-38.6321	471.694	16.9075
-38.6263	476.168	16.97583
-38.6198	477.781	17.0442
-38.6142	481.373	17.1125
-38.6083	487.543	17.1809
-38.6024	487.182	17.2493
-38.5976	485.083	17.3176
-38.5904	489.428	17.386
-38.5855	489.515	17.4543
-38.5809	484.354	17.5227
-38.5748	487.537	17.5911
-38.5685	490.042	17.6594
-38.5627	489.125	17.7278
-38.557	491.758	17.7961
-38.5513	497.089	17.8645
-38.5463	497.245	17.9329
-38.5396	496.4473	18.0012
-38.5342	500.601	18.06958
-38.5289	498.635	18.1379
-38.52372	493.666	18.2063
-38.5187	493.947	18.2747
-38.5114	495.141	18.343
-38.50655	494.26	18.4114
-38.5008	496.469	18.4797
-38.4945	500.416	18.5481
-38.4894	500.466	18.6165
-38.4831	499.7355	18.6848
-38.4787	505.506	18.7532
-38.4722	503.052	18.8215
-38.4663	501.3125	18.8899
-38.4606	497.311	18.9583
[...]
-36.677	469.315	40.3547
-36.6763	470.586	40.3743
-36.6738	468.585	40.3938
-36.673	466.666	40.41333
-36.671	471.879	40.4329
-36.6684	465.845	40.4524
-36.6678	464.398	40.4719
-36.6661	468.545	40.4915
-36.6641	470.5105	40.511
-36.66283	464.579	40.5305
-36.6604	467.602	40.55
-36.65937	469.732	40.56958
-36.6577	464.981	40.5891
-36.6552	467.257	40.6086
-36.6534	468.877	40.6282
-36.6527	464.998	40.6477
-36.6512	462.568	40.6672
-36.6486	469.762	40.6868
-36.6481	465.539	40.7063
-36.6464	462.583	40.72583
-36.645	467.966	40.7454
-36.6429	468.272	40.7649
-36.6406	458.956	40.7844
-36.64	467.892	40.804
-36.6382	465.111	40.8235
-36.6367	460.3992	40.843
-36.6352	465.077	40.8625
-36.6323	469.666	40.88208
-36.63076	457.817	40.9016
-36.6308	464.162	40.9211
-36.6278	465.814	40.9407
-36.6274	459.116	40.9602
-36.6255	458.588	40.9797
-36.6235	465.618	40.9993
-36.6221	457.028	41.0188
-36.6203	455.832	41.03833
-36.6188	459.921	41.0579
-36.6174	454.812	41.0774
-36.6145	452.011	41.0969
-36.6141	456.917	41.1165
-36.6124	451.727	41.136
-36.6109	445.373	41.1555
-36.6083	445.691	41.175
-36.6052	-17.7612	41.19458
-36.6034	-52.5398	41.2141
-36.60284	-43.6806	41.2336
-36.6016	-41.0135	41.2532
-36.5997	-44.6526	41.2727
-36.5992	-43.96	41.2922
-36.597	-39.0959	41.3118
-36.5944	-42.266	41.3313
-36.59346	-45.631	41.35083
-36.5911	-36.2821	41.3704
-36.5905	-39.794	41.3899
-36.5895	-45.9441	41.4094
-36.5874	-40.24881	41.429
-36.5862	-38.0148	41.4485
-36.5849	-46.42765	41.468
-36.5829	-40.3841	41.4875
-36.5811	-40.6555	41.50708
-36.5802	-44.8728	41.5266
-36.57822	-40.0116	41.5461
-36.5764	-36.9488	41.5657
-36.5738	-46.612	41.5852
-36.5718	-44.627	41.6047
-36.5707	-39.14003	41.6243
-36.5694	-41.3355	41.6438
-36.569	-44.5038	41.66333
-36.5668	-38.1864	41.6829
-36.5654	-43.6268	41.7024
-36.5631	-44.153	41.7219
-36.5627	-40.5814	41.7415
-36.56094	-41.1111	41.761
-36.5579	-44.9979	41.7805
-36.5566	-40.6241	41.8
-36.5548	-38.7762	41.81958
-36.5535	-44.6732	41.8391
-36.5518	-44.1832	41.8586
-36.5501	-37.947	41.8782
-36.5485	-41.4191	41.8977
-36.5469	-45.4482	41.9172
-36.5448	-40.5049	41.9368
-36.5436	-43.4925	41.9563
-36.5419	-45.0529	41.97583
-36.5404	-39.7729	41.9954
-36.5384	-40.6695	42.0149
-36.5383	-47.7983	42.0344
-36.536	-38.6022	42.054
-36.5345	-40.8869	42.0735
-36.5317	-44.1153	42.093
-36.5299	-42.6064	42.1125
-36.5281	-36.847	42.13208
-36.5274	-46.3326	42.1516
-36.5257	-40.3728	42.1711
-36.524	-39.4801	42.1907
-36.5226	-44.4662	42.2102
-36.52055	-41.549	42.2297
-36.5196	-37.77459	42.2493
-36.5176	-44.3675	42.2688
-36.5153	-45.8393	42.28833
-36.5144	-41.89241	42.3079
-36.513	-40.2005	42.3274
-36.51004	-45.567	42.3469
-36.5089	-40.7135	42.3665
-36.5075	-43.9052	42.386
-36.5073	-43.4054	42.4055
-36.5051	-41.626	42.425
-36.504	-40.3895	42.44458
-36.5012	-46.3883	42.4641
-36.5002	-44.67976	42.4836
-36.498	-40.1748	42.5032
-36.4966	-43.7465	42.5227
-36.495	-45.3391	42.5422
-36.4923	-41.166	42.5618
-36.4913	-42.30056	42.5813
-36.4904	-46.4141	42.60083
-36.4879	-39.5435	42.6204
-36.48624	-42.2962	42.6399
-36.486	-45.909	42.6594
-36.4837	-41.6241	42.679
-36.4823	-37.7653	42.6985
-36.48024	-49.228	42.718
-36.4786	-41.9742	42.7375
-36.4767	-41.1089	42.75708
-36.4759	-43.9776	42.7766
-36.4732	-43.297	42.7961
-36.4719	-38.1913	42.8157
-36.4713	-46.1846	42.8352
-36.4688	-41.6843	42.8547
-36.4671	-39.5608	42.8743
-36.465	-42.72258	42.8938
-36.4649	-45.9308	42.91333
-36.4627	-36.6876	42.9329
-36.4612	-42.843	42.9524
-36.4593	-45.62772	42.9719
-36.458	-41.8393	42.9915
-36.4554	-40.3478	43.011
-36.4545	-44.7802	43.0305
-36.4521	-41.2743	43.05
-36.452	-43.467	43.06958
-36.4488	-45.3103	43.0891
-36.4482	-45.07962	43.1086
-36.4466	-38.7526	43.1282