Folder: Stress_Strain_Analysis_Tools/data/processed_data_files/tensile (part 27)

File: 0.254_hd_uprint_typeiv_4545_r(6).dat
MTS793|BTW|ENU|1|2|.|/|:|1|0|0|A

Data Header:			0.254_hd_uprint_typeiv_4545_r0			Time:	20.0181	s	4/13/2019 7:26:02 PM
Data Acquisition:	Timed
Station Name:	ft40.cfg
Test File Name:	monotonic_0.2540_typeiv_hd_4545_uprint.tst
Displacement	Force	Running Time
mm	N	s
-40.036	-155.625	0.0227051
-40.0343	-155.0553	0.0910645
-40.0287	-150.5229	0.159424
-40.022	-149.914	0.2277832
-40.0168	-145.491	0.296143
-40.0117	-134.724	0.364502
-40.0053	-133.0705	0.432861
-39.9998	-130.961	0.5012207
-39.995	-127.466	0.56958
-39.9881	-127.526	0.637939
-39.9824	-124.35	0.706299
-39.9767	-120.037	0.7746582
-39.9708	-119.345	0.843018
-39.9669	-117.476	0.911377
-39.9599	-109.674	0.979736
-39.95406	-100.894	1.0481
-39.949	-101.169	1.11646
-39.9429	-96.7054	1.18481
-39.9368	-92.5474	1.25317
-39.9312	-92.4283	1.32153
-39.92532	-89.1168	1.38989
-39.9205	-85.8955	1.458252
-39.9141	-85.7424	1.52661
-39.9091	-85.025	1.59497
-39.90284	-76.0188	1.66333
-39.8967	-70.2942	1.73169
-39.8907	-67.7556	1.80005
-39.8851	-63.2315	1.86841
-39.8794	-59.6014	1.93677
-39.8743	-55.4748	2.005127
-39.869	-53.6641	2.07349
-39.86264	-50.9631	2.14185
-39.8571	-51.3791	2.21021
-39.85165	-51.0157	2.27856
-39.8457	-43.5417	2.34692
-39.8398	-39.3039	2.41528
-39.8348	-33.0324	2.48364
-39.8289	-28.533	2.552002
-39.82259	-24.5214	2.62036
-39.8174	-20.91486	2.68872
-39.8114	-17.7934	2.75708
-39.8063	-17.5863	2.82544
-39.7997	-19.5575	2.8938
-39.7948	-16.1573	2.96216
-39.7887	-11.4032	3.03052
-39.7833	-7.70498	3.098877
-39.7773	-2.16732	3.16724
-39.7716	3.82293	3.2356
-39.7663	5.67019	3.30396
-39.75988	11.35701	3.37231
-39.7541	16.1832	3.44067
-39.7491	15.8289	3.50903
-39.743	14.5302	3.57739
-39.7385	19.7897	3.645752
-39.73204	22.4285	3.71411
-39.7254	24.8044	3.78247
-39.7215	30.7477	3.85083
-39.716	37.60453	3.91919
-39.70797	40.1404	3.98755
-39.7043	46.6546	4.05591
-39.6976	52.1817	4.12427
-39.692	48.1773	4.192627
-39.6861	51.06509	4.26099
-39.6802	55.3739	4.32935
-39.6739	55.77066	4.39771
-39.6702	57.4716	4.46606
-39.6639	63.246	4.53442
-39.65797	67.3804	4.60278
-39.6509	71.6999	4.67114
-39.6476	79.4319	4.739502
-39.641	83.441	4.80786
-39.6354	82.1036	4.87622
-39.6285	86.0264	4.94458
-39.623	90.4864	5.01294
-39.6177	88.8689	5.0813
-39.6124	90.1871	5.14966
-39.6063	96.1838	5.21802
-39.60191	99.2207	5.286377
-39.5947	104.0614	5.35474
-39.5892	110.7836	5.4231
-39.5842	115.796	5.49146
-39.5799	115.417	5.55981
-39.5732	117.935	5.62817
-39.5669	124.855	5.69653
-39.5597	123.664	5.76489
-39.5562	122.78	5.833252
-39.5488	129.896	5.90161
-39.5437	130.7706	5.96997
-39.5384	134.425	6.03833
-39.53273	142.314	6.10669
-39.5262	146.492	6.17505
-39.5208	146.303	6.24341
-39.5154	151.844	6.31177
-39.51088	156.744	6.380127
-39.5046	157.142	6.44849
-39.4982	157.258	6.51685
-39.4938	161.329	6.58521
-39.4864	161.028	6.65356
-39.4804	167.576	6.72192
-39.4756	172.618	6.79028
-39.4705	177.198	6.85864
-39.4638	178.575	6.927002
-39.45789	185.2543	6.99536
-39.4518	190.184	7.06372
-39.4477	189.955	7.13208
-39.4414	190.678	7.20044
-39.4373	191.942	7.2688
-39.4294	194.971	7.33716
-39.4239	200.545	7.40552
-39.4188	203.96	7.473877
-39.4133	206.586	7.54224
-39.4081	211.958	7.6106
-39.4019	217.074	7.67896
-39.3957	220.337	7.74731
-39.3894	221.821	7.81567
-39.3855	226.316	7.88403
-39.3778	225.5105	7.95239
-39.3741	227.757	8.020752
-39.3681	230.093	8.08911
-39.3631	234.2729	8.15747
-39.3561	236.922	8.22583
-39.3503	241.442	8.29419
-39.34478	247.417	8.36255
-39.33815	251.124	8.43091
-39.3338	254.997	8.49927
-39.3275	258.208	8.567627
-39.3219	255.991	8.63599
-39.3163	258.7991	8.70435
-39.3104	262.363	8.77271
-39.305	263.151	8.84106
-39.2989	265.068	8.90942
-39.2932	272.246	8.97778
-39.2883	279.286	9.04614
-39.2822	280.319	9.114502
-39.2751	286.19	9.18286
-39.2713	290.806	9.25122
-39.2659	288.59	9.31958
-39.2597	291.899	9.38794
-39.2532	294.168	9.4563
-39.2481	294.285	9.52466
-39.2428	294.0975	9.59302
-39.2362	302.1427	9.661377
-39.232	306.641	9.72974
-39.2242	309.108	9.7981
-39.2198	313.604	9.86646
-39.213	319.606	9.93481
-39.2078	319.151	10.0032
-39.2024	323.299	10.0715
-39.1965	324.8042	10.1399
-39.1907	322.451	10.2083
-39.1854	322.252	10.2766
-39.179	330.945	10.345
-39.1735	335.543	10.41333
-39.1675	336.8634	10.4817
-39.1622	342.697	10.55
-39.1568	347.563	10.6184
-39.15	351.577	10.6868
-39.1459	353.648	10.7551
-39.13979	353.16	10.8235
-39.1338	352.587	10.8918
-39.1279	353.385	10.9602
-39.1229	358.856	11.0286
-39.1168	360.929	11.0969
-39.111	363.528	11.1653
-39.1058	369.342	11.2336
-39.1003	376.116	11.302
-39.0934	378.96	11.3704
-39.0883	382.271	11.4387
-39.083	382.475	11.50708
-39.0779	380.129	11.5754
-39.0719	381.67	11.6438
-39.0662	385.811	11.7122
-39.0598	387.342	11.7805
-39.0534	392.832	11.8489
-39.0473	394.959	11.9172
-39.0428	399.799	11.9856
-39.0377	406.881	12.054
-39.03204	410.098	12.1223
-39.0255	409.448	12.1907
-39.0209	409.093	12.259
-39.015	412.069	12.3274
-39.0084	412.727	12.3958
-39.0033	414.917	12.4641
-38.9973	417.11	12.5325
-38.9923	422.543	12.60083
-38.98666	425.654	12.6692
-38.981	432.54	12.7375
-38.9749	436.494	12.8059
-38.9693	435.862	12.8743
-38.9621	435.665	12.9426
-38.9574	440.15	13.011
-38.9514	439.4	13.0793
-38.9455	438.235	13.1477
-38.9405	443.93	13.2161
-38.9356	445.097	13.2844
-38.9289	449.308	13.3528
-38.9238	454.816	13.4211
-38.9173	460.029	13.4895
-38.9117	459.993	13.5579
-38.9055	461.285	13.6262
-38.9009	466.741	13.69458
-38.8944	465.3345	13.7629
-38.8895	462.885	13.8313
-38.8833	467.061	13.8997
-38.8783	468.294	13.968
-38.87104	470.959	14.0364
-38.865	477.187	14.1047
-38.8598	480.687	14.1731
-38.85532	480.5444	14.2415
-38.8492	483.272	14.3098
-38.8436	489.289	14.3782
-38.8374	486.2457	14.4465
-38.8319	485.256	14.5149
-38.8254	487.225	14.5833
-38.82	488.073	14.6516
-38.8155	491.437	14.72
-38.8098	496.03	14.78833
-38.8044	499.314	14.8567
-38.7962	499.476	14.925
-38.793	501.462	14.9934
-38.7866	509.224	15.0618
-38.7805	507.981	15.1301
-38.7759	505.722	15.1985
-38.7689	507.573	15.2668
-38.7645	507.226	15.3352
-38.7572	508.95	15.4036
-38.7525	512.534	15.4719
-38.748	512.668	15.5403
-38.741	516.292	15.6086
-38.7351	520.5838	15.677
-38.7299	524.232	15.7454
-38.724	522.903	15.8137
-38.7177	521.817	15.88208
-38.7131	522.374	15.9504
-38.7071	520.533	16.0188
-38.7014	521.013	16.0872
-38.6948	522.93	16.1555
-38.6899	524.29	16.2239
-38.6834	524.897	16.2922
-38.6784	530.32	16.3606
-38.6726	531.975	16.429
-38.66766	532.3208	16.4973
-38.6607	533.078	16.5657
-38.6562	530.06	16.634
-38.65049	530.3114	16.7024
-38.64473	529.561	16.7708
-38.6374	527.044	16.8391
-38.6325	525.628	16.9075
-38.6279	526.368	16.97583
-38.6213	532.928	17.0442
-38.6151	533.042	17.1125
-38.61	534.359	17.1809
-38.6035	535.012	17.2493
-38.5986	530.938	17.3176
-38.5918	530.589	17.386
-38.5865	531.398	17.4543
-38.5816	528.53	17.5227
-38.5759	522.471	17.5911
-38.56942	526.257	17.6594
-38.5637	529.234	17.7278
-38.5591	529.665	17.7961
-38.5528	531.336	17.8645
-38.5471	532.713	17.9329
-38.5418	528.124	18.0012
-38.5364	530.111	18.06958
-38.5292	527.094	18.1379
-38.5245	524.451	18.2063
-38.5185	520.718	18.2747
-38.5129	524.028	18.343
-38.50695	525.046	18.4114
-38.5023	523.706	18.4797
-38.4964	527.484	18.5481
-38.4901	528.125	18.6165
-38.4843	529.678	18.6848
-38.4793	526.591	18.7532
-38.4741	527.431	18.8215
-38.4686	521.393	18.8899
-38.4624	516.783	18.9583
-38.4561	520.329	19.0266
-38.4503	521.351	19.095
[...]
-37.8233	508.275	26.6145
-37.8184	504.9194	26.66333
-37.8154	501.078	26.7122
-37.8118	503.5	26.761
-37.8079	510.414	26.8098
-37.8026	506.572	26.8586
-37.7991	501.681	26.9075
-37.7968	502.134	26.9563
-37.7898	506.57	27.0051
-37.787	509.001	27.054
-37.7826	506.254	27.1028
-37.7794	503.089	27.1516
-37.7759	505.82	27.2004
-37.7723	507.157	27.2493
-37.76598	506.194	27.2981
-37.7621	502.815	27.3469
-37.7583	500.699	27.3958
-37.7555	503.005	27.44458
-37.7502	506.553	27.4934
-37.7455	504.176	27.5422
-37.7425	501.034	27.5911
-37.74	502.4838	27.6399
-37.7333	504.858	27.6887
-37.73	505.945	27.7375
-37.7251	505.317	27.7864
-37.7225	503.561	27.8352
-37.7186	506.846	27.884
-37.7138	508.743	27.9329
-37.7085	505.132	27.9817
-37.7063	501.2012	28.0305
-37.7012	504.379	28.0793
-37.6974	506.486	28.1282
-37.6928	506.08	28.177
-37.6889	503.376	28.22583
-37.6862	500.2305	28.2747
-37.6807	500.946	28.3235
-37.6782	504.581	28.3723
-37.6734	502.905	28.4211
-37.669	500.316	28.47
-37.6647	503.011	28.5188
-37.6623	506.123	28.5676
-37.6559	506.685	28.6165
-37.6521	501.223	28.6653
-37.649	499.558	28.7141
-37.6452	502.082	28.7629
-37.641	505.036	28.8118
-37.6368	500.979	28.8606
-37.6318	499.033	28.9094
-37.62891	498.009	28.9583
-37.6246	501.58	29.00708
-37.6204	501.533	29.0559
-37.6163	497.402	29.1047
-37.6112	497.901	29.1536
-37.6083	501.79	29.2024
-37.6038	505.882	29.2512
-37.6002	504.681	29.3
-37.597	498.015	29.3489
-37.5921	496.385	29.3977
-37.5879	501.557	29.4465
-37.5838	503.387	29.4954
-37.58012	498.566	29.5442
-37.5744	496.469	29.593
-37.5725	497.461	29.6418
-37.5672	502.3	29.6907
-37.5635	499.049	29.7395
-37.5584	494.669	29.78833
-37.5562	494.525	29.8372
-37.5506	499.823	29.886
-37.5465	501.656	29.9348
-37.543	498.43	29.9836
-37.5387	493.782	30.0325
-37.5347	493.43	30.0813
-37.532	499.515	30.1301
-37.5256	498.864	30.179
-37.5217	493.064	30.2278
-37.5184	489.359	30.2766
-37.5153	493.606	30.3254
-37.5106	496.232	30.3743
-37.5065	490.995	30.4231
-37.5023	485.045	30.4719
-37.4981	484.785	30.5208
-37.4954	490.209	30.56958
-37.4903	490.649	30.6184
-37.48502	477.1	30.6672
-37.4795	-47.1343	30.7161
-37.4774	-46.9095	30.7649
-37.4747	-39.6488	30.8137
-37.4697	-42.0662	30.8625
-37.466	-46.1146	30.9114
-37.4606	-45.2278	30.9602
-37.4575	-42.1085	31.009
-37.453	-36.5995	31.0579
-37.4496	-44.8216	31.1067
-37.4446	-48.5918	31.1555
-37.4421	-46.8139	31.2043
-37.4373	-41.7721	31.2532
-37.43362	-38.8106	31.302
-37.4298	-45.5141	31.35083
-37.4255	-45.7375	31.3997
-37.4205	-43.6179	31.4485
-37.4165	-39.76902	31.4973
-37.413	-40.8653	31.5461
-37.4086	-46.2608	31.595
-37.4052	-46.6243	31.6438
-37.4017	-41.5842	31.6926
-37.3959	-39.4497	31.7415
-37.3924	-44.4478	31.7903
-37.3883	-48.9196	31.8391
-37.3836	-46.98811	31.8879
-37.3806	-41.5925	31.9368
-37.3759	-42.2295	31.9856
-37.3725	-45.9873	32.0344
-37.3674	-46.916	32.0833
-37.3639	-42.1202	32.13208
-37.359	-40.1653	32.1809
-37.35601	-42.4958	32.2297
-37.3517	-47.4303	32.2786
-37.3468	-45.7636	32.3274
-37.3444	-40.9741	32.3762
-37.3411	-40.5233	32.425
-37.3354	-43.6517	32.4739
-37.3308	-48.11195	32.5227
-37.3272	-46.69022	32.5715
-37.3231	-42.51561	32.6204
-37.3193	-43.883	32.6692
-37.3152	-45.4719	32.718
-37.3114	-44.9695	32.7668
-37.30727	-42.7063	32.8157
-37.3028	-41.9586	32.8645
-37.2985	-45.6508	32.91333
-37.2945	-46.40242	32.9622
-37.291	-44.31311	33.011
-37.2876	-41.3189	33.0598
-37.283	-42.551	33.1086
-37.2781	-44.4487	33.1575
-37.2736	-45.9491	33.2063
-37.2708	-43.4238	33.2551
-37.2661	-43.7683	33.304
-37.2618	-44.5171	33.3528
-37.2582	-45.5113	33.4016
-37.25404	-42.9598	33.4504
-37.24934	-39.3508	33.4993
-37.24641	-42.99	33.5481
-37.2424	-46.0698	33.5969
-37.2383	-42.46806	33.636

File: 0.254_hd_uprint_typeiv_4545_r(7).dat
MTS793|BTW|ENU|1|2|.|/|:|1|0|0|A

Data Header:			0.254_hd_uprint_typeiv_4545_r0			Time:	20.019	s	4/13/2019 7:29:01 PM
Data Acquisition:	Timed
Station Name:	ft40.cfg
Test File Name:	monotonic_0.2540_typeiv_hd_4545_uprint.tst
Displacement	Force	Running Time
mm	N	s
-40.0351	-123.098	0.0224609
-40.0335	-120.595	0.0908203
-40.0279	-115.937	0.15918
-40.0219	-113.1754	0.227539
-40.0156	-106.95	0.295898
-40.0105	-102.9789	0.364258
-40.0045	-98.1852	0.432617
-39.9976	-92.7178	0.500977
-39.9932	-86.9968	0.569336
-39.9866	-88.4949	0.637695
-39.9812	-87.99028	0.706055
-39.9761	-83.7412	0.774414
-39.9703	-80.9739	0.842773
-39.9654	-81.0955	0.911133
-39.9598	-73.6877	0.979492
-39.953	-68.4656	1.04785
-39.9473	-64.4845	1.11621
-39.9425	-58.7554	1.18457
-39.9355	-53.7993	1.25293
-39.9297	-52.4898	1.32129
-39.925	-53.3387	1.38965
-39.9191	-46.77359	1.45801
-39.91378	-45.526	1.52637
-39.9079	-45.79871	1.59473
-39.9024	-39.59338	1.66309
-39.8964	-35.751	1.73145
-39.8914	-33.998	1.7998
-39.8854	-26.1367	1.86816
-39.8799	-21.9068	1.93652
-39.8745	-21.4128	2.00488
-39.8679	-19.4852	2.07324
-39.8621	-10.0733	2.1416
-39.8567	-11.4342	2.20996
-39.8509	-11.4907	2.27832
-39.84536	-7.59743	2.34668
-39.839	-2.9601	2.41504
-39.8339	0.955871	2.4834
-39.8275	7.23955	2.55176
-39.8225	10.2112	2.62012
-39.81776	12.1158	2.68848
-39.8112	16.7284	2.75684
-39.8055	22.8167	2.8252
-39.79977	22.6542	2.89355
-39.7944	23.2816	2.96191
-39.7884	27.7247	3.03027
-39.7827	29.5822	3.09863
-39.7767	34.0194	3.16699
-39.7717	38.7039	3.23535
-39.7656	43.0958	3.30371
-39.7598	45.0996	3.37207
-39.7558	51.0748	3.44043
-39.7489	56.5125	3.50879
-39.7418	57.944	3.57715
-39.7368	60.0439	3.64551
-39.7319	61.1744	3.71387
-39.7265	63.8338	3.78223
-39.7192	66.9188	3.85059
-39.71492	71.1773	3.91895
-39.707	74.4013	3.9873
-39.7025	79.186	4.05566
-39.697	85.2798	4.12402
-39.692	90.1053	4.19238
-39.68549	91.2282	4.26074
-39.6805	94.2677	4.3291
-39.675	94.0506	4.39746
-39.6697	97.3222	4.46582
-39.6635	101.569	4.53418
-39.6576	103.809	4.60254
-39.6511	104.494	4.6709
-39.6457	109.662	4.73926
-39.6402	119.005	4.80762
-39.6341	121.891	4.87598
-39.62859	125.0703	4.94434
-39.6225	129.674	5.0127
-39.6172	127.994	5.08105
-39.6116	131.863	5.14941
-39.6072	135.081	5.21777
-39.6008	134.345	5.28613
-39.5944	136.833	5.35449
-39.5898	140.911	5.42285
-39.5844	149.042	5.49121
-39.5766	153.261	5.55957
-39.5719	159.068	5.62793
-39.5665	163.31	5.69629
-39.5601	161.954	5.76465
-39.5544	164.924	5.83301
-39.5489	166.125	5.90137
-39.5442	167.357	5.96973
-39.5384	166.455	6.03809
-39.5326	174.324	6.10645
-39.52705	181.925	6.1748
-39.5205	184.385	6.24316
-39.5152	190.284	6.31152
-39.509	193.841	6.37988
-39.5032	197.758	6.44824
-39.498	198.264	6.5166
-39.492	200.404	6.58496
-39.4865	197.821	6.65332
-39.4822	199.313	6.72168
-39.4758	205.769	6.79004
-39.4693	213.351	6.8584
-39.4637	214.14	6.92676
-39.4579	220.912	6.99512
-39.4521	227.299	7.06348
-39.4466	228.168	7.13184
-39.4412	230.25	7.2002
-39.435	233.704	7.26855
-39.4283	230.64	7.33691
-39.4242	231.915	7.40527
-39.4193	238.785	7.47363
-39.4133	242.067	7.54199
-39.4075	245.871	7.61035
-39.4006	250.401	7.67871
-39.3964	256.972	7.74707
-39.3894	260.976	7.81543
-39.3847	263.463	7.88379
-39.3785	264.659	7.95215
-39.3723	263.046	8.02051
-39.3679	264.636	8.08887
-39.36031	270.295	8.15723
-39.355	273.162	8.22559
-39.3495	276.413	8.29395
-39.3447	280.717	8.3623
-39.339	287.216	8.43066
-39.3337	293.099	8.49902
-39.3273	295.711	8.56738
-39.3216	295.833	8.63574
-39.3158	294.959	8.7041
-39.3103	296.663	8.77246
-39.3055	300.371	8.84082
-39.2988	301.263	8.90918
-39.2929	307.3989	8.97754
-39.2869	310.52	9.0459
-39.28183	314.168	9.11426
-39.276	319.498	9.18262
-39.2693	325.581	9.25098
-39.2639	325.209	9.31934
-39.2595	325.661	9.3877
-39.2535	329.814	9.45605
-39.2472	332.6741	9.52441
-39.242	331.946	9.59277
-39.2355	337.194	9.66113
-39.23	339.4592	9.72949
-39.2246	342.958	9.79785
-39.21838	349.4339	9.86621
-39.2132	354.7106	9.93457
-39.2067	355.573	10.00293
-39.2018	355.929	10.0713
-39.19659	361.695	10.1396
-39.1896	363.631	10.208
-39.1852	362.791	10.2764
-39.1795	365.003	10.3447
-39.1735	369.203	10.4131
-39.1688	371.327	10.4814
-39.1618	375.144	10.5498
-39.1556	381.736	10.6182
-39.1506	381.361	10.6865
-39.146	386.15	10.7549
-39.1385	391.839	10.8232
-39.1339	393.335	10.8916
-39.1285	389.891	10.96
-39.1227	395.108	11.02832
-39.1151	395.494	11.09668
-39.1105	396.483	11.165
-39.1051	402.918	11.2334
-39.099	407.882	11.3018
-39.0927	409.844	11.3701
-39.0878	412.136	11.4385
-39.0827	420.1492	11.5068
-39.0757	421.9856	11.5752
-39.0713	419.482	11.6436
-39.0652	423.088	11.7119
-39.0596	423.394	11.7803
-39.0514	425.167	11.8486
-39.0484	428.727	11.917
-39.0426	432.094	11.9854
-39.0382	434.861	12.0537
-39.0318	437.858	12.12207
-39.0248	446.158	12.19043
-39.01992	448.483	12.2588
-39.0141	446.357	12.3271
-39.0085	449.249	12.3955
-39.0025	448.637	12.4639
-38.9958	451.691	12.5322
-38.9921	453.9722	12.6006
-38.9856	455.667	12.6689
-38.9804	457.594	12.7373
-38.9747	462.377	12.8057
-38.96854	469.349	12.874
-38.9632	470.365	12.9424
-38.95631	472.95	13.0107
-38.951	473.691	13.0791
-38.9456	473.66	13.1475
-38.9391	475.302	13.21582
-38.9339	475.917	13.28418
-38.9288	475.187	13.3525
-38.9224	478.118	13.4209
-38.9165	484.395	13.4893
-38.9101	490.728	13.5576
-38.90649	492.764	13.626
-38.9	494.917	13.6943
-38.8927	494.468	13.7627
-38.889	494.7149	13.8311
-38.8832	496.036	13.8994
-38.8774	497.389	13.9678
-38.872	493.56	14.0361
-38.8647	495.89	14.1045
-38.86042	503.813	14.1729
-38.8549	507.682	14.2412
-38.8496	509.013	14.30957
-38.8418	514.224	14.37793
-38.837	513.753	14.4463
-38.8311	513.704	14.5146
-38.8252	513.806	14.583
-38.819	513.284	14.6514
-38.8149	510.796	14.7197
-38.8089	510.3833	14.7881
-38.8037	518.245	14.8564
-38.79784	520.0282	14.9248
-38.7913	521.6814	14.9932
-38.7859	526.612	15.0615
-38.78	527.906	15.1299
-38.7738	526.173	15.1982
-38.769	527.263	15.2666
-38.7635	526.751	15.335
-38.7576	519.426	15.40332
-38.7512	521.9115	15.47168
-38.7461	528.334	15.54
-38.73999	526.6	15.6084
-38.7338	528.149	15.6768
-38.7288	532.82	15.7451
-38.7233	534.501	15.8135
-38.7178	532.572	15.8818
-38.7129	535.597	15.9502
-38.7061	531.293	16.0186
-38.7003	526.235	16.0869
-38.6958	525.687	16.1553
-38.6892	528.318	16.2236
-38.6843	528.642	16.292
-38.67844	528.826	16.3604
-38.6721	532.869	16.4287
-38.6665	533.43	16.49707
-38.6609	535.478	16.56543
-38.6553	533.958	16.6338
-38.6487	531.021	16.7021
-38.6437	526.59	16.7705
-38.6379	525.648	16.8389
-38.6317	527.448	16.9072
-38.6266	525.265	16.9756
-38.62	526.956	17.0439
-38.614	527.505	17.1123
-38.6094	528.745	17.1807
-38.6034	532.156	17.249
-38.5981	529.211	17.3174
-38.59341	529.033	17.3857
-38.5872	524.285	17.4541
-38.5813	523.384	17.5225
-38.5757	521.702	17.59082
-38.5702	520.413	17.65918
-38.5636	521.525	17.7275
-38.55809	520.7821	17.7959
-38.5522	523.279	17.8643
-38.5449	525.56	17.9326
-38.5408	525.508	18.001
-38.5345	524.2854	18.0693
-38.5296	522.327	18.1377
-38.5235	522.404	18.2061
-38.5177	519.018	18.2744
-38.5121	516.213	18.3428
-38.5067	518.139	18.4111
-38.5015	516.984	18.4795
-38.4958	518.508	18.5479
-38.4897	521.583	18.6162
-38.4839	522.38	18.68457
-38.4795	519.383	18.75293
-38.4725	518.232	18.8213
-38.4675	521.124	18.8896
-38.4615	517.339	18.958
-38.455	515.422	19.0264
-38.4504	515.309	19.0947
-38.444	512.912	19.1631
[...]
-37.9068	497.2923	25.6084
-37.9039	497.718	25.6475
-37.9018	499.266	25.6865
-37.897	495.485	25.7256
-37.8942	503.183	25.7646
-37.8917	498.82	25.8037
-37.888	495.611	25.8428
-37.8844	505.0162	25.8818
-37.881	493.643	25.9209
-37.8777	498.966	25.96
-37.8735	502.645	25.999
-37.8719	495.555	26.0381
-37.8668	501.247	26.0771
-37.8644	500.693	26.1162
-37.8605	496.13	26.1553
-37.8586	502.657	26.1943
-37.8553	497.354	26.2334
-37.8524	497.898	26.2725
-37.8484	503.678	26.3115
-37.8459	494.559	26.3506
-37.8419	501.618	26.3896
-37.8393	498.123	26.4287
-37.8356	494.306	26.4678
-37.8322	502.441	26.5068
-37.8293	495.834	26.5459
-37.8257	494.57	26.585
-37.8224	500.462	26.624
-37.8196	495.999	26.6631
-37.8165	495.147	26.7021
-37.81353	498.492	26.7412
-37.8097	494.5495	26.7803
-37.8064	498.069	26.8193
-37.8031	494.361	26.8584
-37.7993	497.237	26.8975
-37.7967	496.3678	26.9365
-37.7938	492.259	26.9756
-37.7898	500.923	27.0146
-37.7871	493.957	27.0537
-37.7843	494.704	27.0928
-37.7801	502.305	27.1318
-37.7771	494.9415	27.1709
-37.7738	495.968	27.21
-37.77	500.827	27.249
-37.7681	493.931	27.2881
-37.7634	499.788	27.3271
-37.76046	498.303	27.3662
-37.7576	494.803	27.4053
-37.7534	500.772	27.4443
-37.75034	493.771	27.4834
-37.7482	497.4964	27.5225
-37.7438	499.4689	27.5615
-37.7411	491.769	27.6006
-37.7386	496.592	27.6396
-37.7339	495.735	27.6787
-37.7309	490.825	27.7178
-37.7279	498.227	27.7568
-37.7246	492.233	27.7959
-37.7214	490.931	27.835
-37.7193	498.089	27.874
-37.71505	490.532	27.9131
-37.7117	495.109	27.9521
-37.7084	492.348	27.9912
-37.7046	493.803	28.0303
-37.7015	493.906	28.0693
-37.6994	490.999	28.1084
-37.6964	492.656	28.1475
-37.6921	493.496	28.1865
-37.6891	491.046	28.2256
-37.6858	495.753	28.2646
-37.6824	492.234	28.3037
-37.6784	491.0777	28.3428
-37.6764	498.968	28.3818
-37.6731	489.266	28.4209
-37.6693	493.962	28.46
-37.6674	497.093	28.499
-37.6628	489.868	28.5381
-37.6597	493.754	28.5771
-37.6557	492.324	28.6162
-37.65398	488.377	28.6553
-37.6497	494.499	28.6943
-37.6466	489.559	28.7334
-37.644	488.519	28.7725
-37.641	493.188	28.8115
-37.6369	481.951	28.8506
-37.633	489.113	28.8896
-37.6301	483.747	28.9287
-37.627	475.424	28.9678
-37.6239	480.859	29.0068
-37.6208	471.055	29.0459
-37.6178	465.094	29.085
-37.6147	464.252	29.124
-37.6091	-61.7829	29.1631
-37.606	-47.9097	29.2021
-37.6033	-43.47002	29.2412
-37.6008	-45.8319	29.2803
-37.5985	-43.76725	29.3193
-37.5933	-45.6133	29.3584
-37.5912	-43.4694	29.3975
-37.5868	-42.1469	29.4365
-37.584	-46.3018	29.4756
-37.581	-40.5527	29.5146
-37.5785	-44.9721	29.5537
-37.5759	-45.0001	29.5928
-37.5719	-40.2233	29.6318
-37.5684	-44.8827	29.6709
-37.5639	-44.0207	29.71
-37.562	-39.1278	29.749
-37.5588	-45.7371	29.7881
-37.5539	-39.895	29.8271
-37.5511	-41.5216	29.8662
-37.5487	-45.9127	29.9053
-37.5457	-39.3303	29.9443
-37.5418	-46.8801	29.9834
-37.5398	-43.724	30.0225
-37.5362	-42.1044	30.0615
-37.5325	-48.8802	30.1006
-37.5294	-42.5627	30.1396
-37.5262	-42.6931	30.1787
-37.5236	-47.4775	30.2178
-37.5198	-40.6716	30.2568
-37.5167	-45.1402	30.2959
-37.514	-47.7948	30.335
-37.5103	-39.5975	30.374
-37.5062	-47.2032	30.4131
-37.5021	-44.962	30.4521
-37.4998	-44.6465	30.4912
-37.497	-44.6499	30.5303
-37.4939	-43.1897	30.5693
-37.4894	-46.45956	30.6084
-37.487	-43.8843	30.6475
-37.4832	-43.2295	30.6865
-37.4812	-45.6537	30.7256
-37.4778	-40.0272	30.7646
-37.4726	-41.93504	30.8037
-37.4704	-47.4176	30.8428
-37.4673	-39.0036	30.8818
-37.465	-46.83543	30.9209
-37.461	-44.1392	30.96
-37.4579	-40.0518	30.999
-37.4547	-46.2914	31.0381
-37.4516	-41.01704	31.0771
-37.4484	-44.2755	31.1162
-37.4448	-45.4536	31.1553
-37.4419	-41.718	31.1943
-37.4385	-45.7615	31.2334