Folder: Stress_Strain_Analysis_Tools/data/processed_data_files/tensile (part 30)

File: 0.254_solid_dimension_typei_090_r(2).dat
MTS793|BTW|ENU|1|2|.|/|:|1|0|0|A

Data Header:			0.254_solid_dimension_typei_090_r0			Time:	20.0293	s	4/15/2019 2:14:56 PM
Data Acquisition:	Timed
Station Name:	ft40.cfg
Test File Name:	monotonic_0.2540_typei_solid_090_dimension.tst
Displacement	Force	Running Time
mm	N	s
9.97253	-102.908	0.0341797
9.97569	-100.243	0.102539
9.98139	-97.7865	0.170898
9.98639	-97.8343	0.239258
9.99259	-87.4	0.307617
9.99794	-77.3324	0.375977
10.0045	-76.0372	0.444336
10.0088	-70.8146	0.512695
10.015	-64.5338	0.581055
10.0213	-63.7744	0.649414
10.0271	-63.1506	0.717773
10.0316	-60.1981	0.786133
10.0366	-58.853	0.854492
10.0437	-58.0586	0.922852
10.0506	-51.7574	0.991211
10.0553	-41.7809	1.05957
10.061	-38.4209	1.12793
10.0673	-33.5886	1.19629
10.0725	-26.9291	1.26465
10.078	-23.5911	1.33301
10.0838	-22.0125	1.40137
10.0896	-19.16725	1.46973
10.0955	-20.3127	1.53809
10.09916	-17.827	1.60645
10.1054	-12.6041	1.6748
10.1115	-3.90507	1.74316
10.1178	0.581865	1.81152
10.1231	6.63719	1.87988
10.1291	13.1324	1.94824
10.1357	19.9643	2.0166
10.1398	22.3591	2.08496
10.1458	23.3917	2.15332
10.152	23.522	2.22168
10.1569	24.2326	2.29004
10.1639	29.9021	2.3584
10.1694	35.0647	2.42676
10.1748	40.5966	2.49512
10.1801	48.1072	2.56348
10.1862	53.562	2.63184
10.1924	60.2386	2.7002
10.1972	65.6283	2.76855
10.2032	67.8518	2.83691
10.2094	65.4458	2.90527
10.215	68.2484	2.97363
10.2206	73.0971	3.04199
10.2263	74.3094	3.11035
10.2316	80.201	3.17871
10.2373	87.5426	3.24707
10.2437	92.1081	3.31543
10.2489	99.8303	3.38379
10.2546	106.597	3.45215
10.2598	108.741	3.52051
10.2652	108.442	3.58887
10.2707	112.117	3.65723
10.2765	115.986	3.72559
10.2813	116.705	3.79395
10.2881	120.521	3.8623
10.2945	129.838	3.93066
10.2998	134.4449	3.99902
10.3043	141.261	4.06738
10.3108	149.166	4.13574
10.3165	154.595	4.2041
10.3236	152.243	4.27246
10.329	155.568	4.34082
10.3338	160.726	4.40918
10.3406	158.081	4.47754
10.3455	160.391	4.5459
10.3512	171.5088	4.61426
10.3568	172.138	4.68262
10.3634	181.238	4.75098
10.3687	189.608	4.81934
10.3746	194.635	4.8877
10.3792	194.017	4.95605
10.3857	199.232	5.02441
10.3909	203.94	5.09277
10.3969	201.305	5.16113
10.4034	202.311	5.22949
10.40744	209.422	5.29785
10.4139	214.053	5.36621
10.42	222.5826	5.43457
10.4262	229.4174	5.50293
10.4309	236.398	5.57129
10.4369	237.568	5.63965
10.4421	242.456	5.70801
10.4465	247.138	5.77637
10.4543	244.2003	5.84473
10.459	246.849	5.91309
10.464	249.37	5.98145
10.4707	254.1526	6.0498
10.4757	263	6.11816
10.4824	267.755	6.18652
10.4872	273.084	6.25488
10.4927	279.67	6.32324
10.4995	285.497	6.3916
10.5039	288.505	6.45996
10.5109	288.721	6.52832
10.5162	289.305	6.59668
10.5229	291.567	6.66504
10.5284	295.165	6.7334
10.5322	301.922	6.80176
10.539	307.203	6.87012
10.5455	311.481	6.93848
10.5506	319.128	7.00684
10.55641	327.9	7.0752
10.5619	330.8168	7.14355
10.5677	332.636	7.21191
10.5723	332.984	7.28027
10.5791	333.205	7.34863
10.5845	334.64	7.41699
10.5909	342.029	7.48535
10.5955	345.621	7.55371
10.6014	349.192	7.62207
10.608	359.406	7.69043
10.6134	367.906	7.75879
10.6188	369.728	7.82715
10.6252	372.725	7.89551
10.6296	378.845	7.96387
10.63651	377.081	8.03223
10.64186	376.042	8.10059
10.6472	381.85	8.16895
10.6529	383.938	8.2373
10.6582	387.064	8.30566
10.6648	396.341	8.37402
10.6702	407.179	8.44238
10.6759	409.759	8.51074
10.6814	413.6351	8.5791
10.6875	420.131	8.64746
10.69276	417.807	8.71582
10.6988	420.514	8.78418
10.705	422.996	8.85254
10.709	424.522	8.9209
10.7164	426.603	8.98926
10.7209	434.253	9.05762
10.7269	443.386	9.12598
10.7322	449.03	9.19434
10.7394	453.856	9.2627
10.745	460.699	9.33105
10.7491	460.27	9.39941
10.7559	461.933	9.46777
10.7609	463.053	9.53613
10.7674	463.968	9.60449
10.772	463.774	9.67285
10.7777	473.574	9.74121
10.7833	482.6012	9.80957
10.7894	486.204	9.87793
10.7949	493.849	9.94629
10.8013	500.333	10.0146
10.8071	502.075	10.083
10.8125	504.703	10.1514
10.818	505.12	10.2197
10.8239	502.494	10.2881
10.8287	505.403	10.3564
10.83515	511.331	10.4248
10.84147	519.591	10.4932
10.8457	525.401	10.5615
10.853	532.18	10.6299
10.8578	538.511	10.6982
10.8638	543.233	10.7666
10.8701	546.3399	10.835
10.87562	545.765	10.90332
10.8817	543.631	10.97168
10.886	545.5509	11.04
10.8926	550.087	11.1084
10.8972	554.093	11.1768
10.9019	560.445	11.2451
10.9088	568.295	11.3135
10.9156	572.741	11.3818
10.9202	581.376	11.4502
10.9258	585.275	11.5186
10.9324	585.831	11.5869
10.93751	583.727	11.6553
10.9439	586.102	11.7236
10.9498	590.85	11.792
10.9544	590.174	11.8604
10.9619	596.456	11.9287
10.96678	605.171	11.99707
10.9725	608.886	12.06543
10.9765	619.301	12.1338
10.9831	624.982	12.2021
10.9891	625.709	12.2705
10.9952	623.052	12.3389
11.00019	625.764	12.4072
11.0057	629.707	12.4756
11.0112	627.142	12.5439
11.0182	631.84	12.6123
11.0239	641.7547	12.6807
11.0288	644.618	12.749
11.0349	653.6651	12.8174
11.0397	661.708	12.8857
11.0446	663.732	12.9541
11.0509	662.677	13.0225
11.0574	668.164	13.09082
11.062	668.311	13.15918
11.0687	664.584	13.2275
11.0748	669.585	13.2959
11.0795	675.745	13.3643
11.0846	677.008	13.4326
11.0915	687.634	13.501
11.0973	695.457	13.5693
11.1025	700.833	13.6377
11.1072	699.321	13.7061
11.11414	704.469	13.7744
11.1191	705.565	13.8428
11.1251	702.906	13.9111
11.131	706.082	13.9795
11.1377	710.497	14.0479
11.14292	714.9007	14.1162
11.1479	722.327	14.18457
11.1545	730.265	14.25293
11.1601	733.854	14.3213
11.1658	736.496	14.3896
11.1709	742.6947	14.458
11.1767	742.752	14.5264
11.1823	741.679	14.5947
11.1884	741.7641	14.6631
11.1941	746.027	14.7314
11.1988	748.832	14.7998
11.20507	755.226	14.8682
11.2114	761.432	14.9365
11.2158	765.38	15.0049
11.2229	771.038	15.0732
11.2284	777.309	15.1416
11.2336	778.348	15.21
11.2402	778.704	15.27832
11.2452	779.744	15.34668
11.2511	779.387	15.415
11.2563	781.203	15.4834
11.2625	788.896	15.5518
11.2679	792.806	15.6201
11.2734	797.726	15.6885
11.27894	804.998	15.7568
11.2858	811.116	15.8252
11.2911	811.943	15.8936
11.2959	812.962	15.9619
11.3038	814.453	16.0303
11.308	813.711	16.0986
11.314	817.743	16.167
11.31908	821.539	16.2354
11.3246	821.355	16.3037
11.3299	826.757	16.37207
11.3357	837.761	16.44043
11.3415	843.269	16.5088
11.34819	845.69	16.5771
11.3542	849.763	16.6455
11.3597	850.8927	16.7139
11.3657	848.64	16.7822
11.3707	849.972	16.8506
11.3757	853.896	16.9189
11.3821	852.896	16.9873
11.3878	856.585	17.0557
11.3924	868.118	17.124
11.39945	872.864	17.1924
11.4056	875.699	17.2607
11.4095	880.398	17.3291
11.4171	882.277	17.3975
11.4212	881.0061	17.46582
11.4274	882.443	17.53418
11.4335	884.9516	17.6025
11.438	882.828	17.6709
11.44507	885.737	17.7393
11.4499	895.462	17.8076
11.4558	900.5177	17.876
11.4615	903.484	17.9443
11.4681	909.55	18.0127
11.4741	912.402	18.0811
11.4783	911.028	18.1494
11.4843	913.777	18.2178
11.4899	913.391	18.2861
11.4958	910.706	18.3545
11.5028	911.41	18.4229
11.5074	919.76	18.4912
11.5127	924.403	18.55957
11.5189	928.6	18.62793
11.52501	936.272	18.6963
11.5294	938.401	18.7646
11.5354	939.818	18.833
11.5407	940.9342	18.9014
11.5474	940.066	18.9697
11.5531	936.275	19.0381
11.5584	938.242	19.1064
11.5631	945.21	19.1748
11.5698	946.543	19.2432
11.576	950.053	19.3115
11.5806	956.543	19.3799
11.58694	960.753	19.4482
11.5924	963.72	19.5166
11.5992	963.845	19.585
11.6037	963.399	19.65332
11.6088	960.152	19.72168
11.6153	960.077	19.79
11.622	964.446	19.8584
11.627	966.163	19.9268
11.6319	970.258	19.9951
[...]
13.4662	980.57	41.99707
13.4685	984.374	42.0264
13.4708	980.578	42.0557
13.4721	984.436	42.085
13.4755	979.186	42.1143
13.47865	989.761	42.1436
13.4803	979.942	42.1729
13.4822	986.371	42.2021
13.4857	977.821	42.2314
13.4872	988.5946	42.2607
13.4899	978.486	42.29
13.4928	986.907	42.3193
13.4953	979	42.3486
13.4965	984.25	42.37793
13.4997	977.525	42.4072
13.5023	982.078	42.4365
13.5043	982.774	42.46582
13.507	982.011	42.4951
13.5088	983.434	42.5244
13.5122	978.558	42.5537
13.5148	986.237	42.583
13.5157	976.254	42.6123
13.5187	982.167	42.6416
13.5222	978.037	42.6709
13.5252	986.3974	42.7002
13.5264	973.826	42.7295
13.5279	981.331	42.7588
13.5314	978.409	42.7881
13.5339	983.2879	42.8174
13.5358	976.769	42.84668
13.5385	979.74	42.876
13.5409	981.228	42.9053
13.5434	977.297	42.93457
13.547	979.991	42.9639
13.5487	975.963	42.9932
13.5508	985.313	43.0225
13.5528	974.524	43.0518
13.55677	982.245	43.0811
13.5577	972.947	43.1104
13.5614	983.471	43.1396
13.5631	972.734	43.1689
13.5659	981.097	43.1982
13.5682	973.245	43.2275
13.5714	977.711	43.2568
13.57337	971.273	43.2861
13.5759	975.535	43.31543
13.5781	972.858	43.3447
13.5806	971.702	43.374
13.58294	974.222	43.40332
13.5853	969.974	43.4326
13.5868	971.6839	43.4619
13.5894	960.847	43.4912
13.592	967.718	43.5205
13.6032	-45.9072	43.5498
13.6012	-40.8291	43.5791
13.6011	-51.8664	43.6084
13.603	-35.2943	43.6377
13.6047	-44.9584	43.667
13.6082	-37.3283	43.6963
13.6102	-46.32579	43.7256
13.6129	-37.0921	43.7549
13.6159	-43.6371	43.78418
13.6177	-41.1816	43.8135
13.6205	-43.6054	43.8428
13.6219	-42.2627	43.87207
13.6249	-39.2216	43.9014
13.6273	-46.2806	43.9307
13.6303	-39.5147	43.96
13.6325	-44.2013	43.9893
13.63521	-39.1899	44.0186
13.6372	-47.8469	44.0479
13.6397	-34.452	44.0771
13.6413	-43.5287	44.1064
13.6447	-36.8459	44.1357
13.6468	-46.31443	44.165
13.6493	-37.1615	44.1943
13.6516	-44.4802	44.2236
13.6529	-37.2767	44.25293
13.6557	-41.212	44.2822
13.6587	-39.6159	44.3115
13.6613	-42.7385	44.34082
13.6642	-43.4366	44.3701
13.66668	-37.5388	44.3994
13.6678	-43.1198	44.4287
13.6704	-37.6372	44.458
13.67293	-45.5856	44.4873
13.67627	-35.3564	44.5166
13.6783	-47.0441	44.5459
13.6799	-40.3077	44.5752
13.6832	-43.902	44.6045
13.6856	-34.6053	44.6338
13.6885	-45.4742	44.6631
13.6904	-42.3338	44.6924
13.6931	-44.77322	44.72168
13.6959	-41.0021	44.751
13.6974	-40.3341	44.7803
13.7001	-42.7245	44.80957
13.703	-38.3098	44.8389
13.70493	-44.247	44.8682
13.7072	-40.608	44.8975
13.7092	-47.5847	44.9268
13.7117	-34.931	44.9561
13.7146	-46.73497	44.9854
13.71763	-37.43824	45.0146
13.7194	-45.39576	45.0439
13.7219	-37.8898	45.0732
13.7248	-46.67355	45.1025
13.727	-39.92868	45.1318
13.72866	-43.6053	45.1611
13.732	-39.0603	45.19043
13.7341	-42.2384	45.2197
13.7367	-42.96373	45.249
13.7399	-39.1761	45.27832
13.7415	-45.3999	45.3076
13.7446	-36.7664	45.3369
13.7483	-44.4539	45.3662
13.7498	-36.0955	45.3955
13.7512	-49.584	45.4248
13.7539	-35.951	45.4541
13.757	-47.9225	45.4834
13.7592	-35.3963	45.5127
13.7616	-47.8981	45.542
13.7644	-35.8946	45.5713
13.7657	-44.6227	45.6006
13.769	-40.02565	45.6299
13.7713	-45.9317	45.65918
13.7732	-36.9764	45.6885
13.7756	-41.4859	45.7178
13.7785	-43.2304	45.74707
13.7811	-42.0214	45.7764
13.7831	-43.5905	45.8057
13.7862	-40.3101	45.835
13.78738	-46.3525	45.8643
13.7906	-36.8602	45.8936
13.7924	-44.5919	45.9229
13.7949	-37.7287	45.9521
13.7971	-48.97979	45.9814
13.7995	-37.518	46.0107
13.8019	-44.266	46.04
13.8048	-38.1978	46.0693
13.8069	-46.02911	46.0986
13.8092	-38.6959	46.12793
13.8126	-43.6607	46.1572
13.8151	-42.1947	46.1865
13.8191	-40.5533	46.21582
13.8201	-41.277	46.2451
13.8214	-39.0945	46.2744
13.8239	-47.4729	46.2939

File: 0.254_solid_dimension_typei_090_r(3).dat
MTS793|BTW|ENU|1|2|.|/|:|1|0|0|A

Data Header:			0.254_solid_dimension_typei_090_r0			Time:	20.0317	s	4/15/2019 2:18:52 PM
Data Acquisition:	Timed
Station Name:	ft40.cfg
Test File Name:	monotonic_0.2540_typei_solid_090_dimension.tst
Displacement	Force	Running Time
mm	N	s
9.97135	-115.313	0.0356445
9.97349	-115.556	0.104004
9.98027	-113.016	0.172363
9.98449	-107.303	0.240723
9.98951	-104.135	0.309082
9.99738	-97.6905	0.377441
10.0022	-87.0101	0.445801
10.0089	-82.4775	0.51416
10.01394	-78.5821	0.58252
10.0197	-74.4462	0.650879
10.0256	-73.45015	0.719238
10.0305	-73.1976	0.787598
10.0357	-70.5952	0.855957
10.0422	-68.3341	0.924316
10.0485	-63.9992	0.992676
10.0533	-57.8322	1.06104
10.0582	-48.4421	1.12939
10.0657	-41.8579	1.19775
10.0707	-38.4272	1.26611
10.076	-34.3014	1.33447
10.082	-33.1844	1.402832
10.0871	-29.7814	1.47119
10.0938	-29.3487	1.53955
10.0993	-26.2516	1.60791
10.1048	-23.587	1.67627
10.1102	-17.179	1.74463
10.11598	-10.664	1.81299
10.1215	-2.97871	1.88135
10.1266	4.44622	1.949707
10.1329	6.92048	2.01807
10.1382	10.4881	2.08643
10.144	14.4391	2.15479
10.1506	13.7694	2.22314
10.1559	11.84692	2.2915
10.1613	16.6218	2.35986
10.1672	24.96497	2.42822
10.1725	28.7051	2.496582
10.178	37.6573	2.56494
10.1843	44.5437	2.6333
10.1905	47.457	2.70166
10.196	53.3438	2.77002
10.2015	56.7014	2.83838
10.2063	58.2974	2.90674
10.2123	55.3246	2.9751
10.2175	59.2765	3.043457
10.2232	66.1672	3.11182
10.23	68.1777	3.18018
10.2356	77.3394	3.24854
10.2412	86.3488	3.31689
10.2479	89.2907	3.38525
10.2528	96.1765	3.45361
10.2583	100.9	3.52197
10.2637	100.168	3.590332
10.2695	97.7661	3.65869
10.276	103.229	3.72705
10.2828	107.601	3.79541
10.2861	109.852	3.86377
10.2937	116.791	3.93213
10.2977	124.845	4.00049
10.3039	129.986	4.06885
10.3097	136.1723	4.137207
10.3155	144.106	4.20557
10.3211	144.394	4.27393
10.3259	142.585	4.34229
10.3319	147.115	4.41064
10.338	151.084	4.479
10.3433	151.929	4.54736
10.3496	156.517	4.61572
10.3569	165.361	4.684082
10.3616	170.26	4.75244
10.3666	178.165	4.8208
10.3729	184.435	4.88916
10.3778	186.3	4.95752
10.38366	186.638	5.02588
10.3899	190.649	5.09424
10.3953	194.408	5.1626
10.4008	193.891	5.230957
10.4063	195.575	5.29932
10.4113	204.07	5.36768
10.4179	210.1609	5.43604
10.42476	216.161	5.50439
10.4301	225.353	5.57275
10.4345	225.425	5.64111
10.441	229.409	5.70947
10.4464	235.6554	5.777832
10.4519	235.725	5.84619
10.45764	234.539	5.91455
10.4624	238.208	5.98291
10.4683	242.834	6.05127
10.4755	249.607	6.11963
10.4798	256.125	6.18799
10.48658	262.38	6.25635
10.4918	266.154	6.324707
10.4974	273.371	6.39307
10.504	277.109	6.46143
10.5086	279.197	6.52979
10.5142	279.723	6.59814
10.5206	280.608	6.6665
10.525	283.262	6.73486
10.531	288.581	6.80322
10.5377	295.968	6.871582
10.5434	300.314	6.93994
10.5491	306.249	7.0083
10.5542	315.207	7.07666
10.5599	320.579	7.14502
10.5662	320.405	7.21338
10.5723	322.452	7.28174
10.5765	324.059	7.3501
10.5835	323.225	7.418457
10.5886	329.902	7.48682
10.5946	336.101	7.55518
10.60039	337.452	7.62354
10.60576	346.251	7.69189
10.6114	356.431	7.76025
10.6175	360.6496	7.82861
10.6224	362.755	7.89697
10.6276	364.93	7.965332
10.6336	367.47	8.03369
10.6401	364.243	8.10205
10.6456	370.8074	8.17041
10.6509	373.85	8.23877
10.6563	375.569	8.30713
10.6632	382.513	8.37549
10.6683	395.842	8.44385
10.6743	399.788	8.512207
10.67953	404.686	8.58057
10.6852	408.3797	8.64893
10.6915	408.6283	8.71729
10.6965	407.962	8.78564
10.7029	409.522	8.854
10.7081	414.213	8.92236
10.7137	413.544	8.99072
10.72049	420.653	9.059082
10.7254	431.666	9.12744
10.7312	436.745	9.1958
10.7369	444.579	9.26416
10.7444	448.877	9.33252
10.7486	448.565	9.40088
10.7531	449.578	9.46924
10.7595	451.265	9.5376
10.7653	451.737	9.605957
10.7719	452.419	9.67432
10.7763	459.716	9.74268
10.7831	469.5061	9.81104
10.7888	475.136	9.87939
10.79383	480.444	9.94775
10.7986	488.272	10.0161
10.8055	488.987	10.0845
10.8115	491.216	10.1528
10.8169	494.0571	10.2212
10.823	493.413	10.2896
10.8278	491.572	10.35791
10.8344	499.137	10.42627
10.83987	505.49	10.4946
10.8451	512.82	10.563
10.8508	518.456	10.6313
10.8562	526.7915	10.6997
10.86133	531.224	10.7681
10.8674	533.526	10.8364
10.8733	534.852	10.9048
10.8785	534.153	10.9731
10.8839	531.477	11.0415
10.8903	536.656	11.1099
10.8964	544.594	11.1782
10.9019	548.918	11.2466
10.9071	554.54	11.3149
10.91372	561.817	11.3833
10.9196	570.0578	11.45166
10.924	572.169	11.52002
10.9298	575.7345	11.5884
10.93743	571.202	11.6567
10.9406	574.589	11.7251
10.9468	576.258	11.7935
10.9531	578.238	11.8618
10.9593	583.779	11.9302
10.9646	589.537	11.9985
10.97	597.801	12.0669
10.9758	606.425	12.1353
10.9812	611.349	12.2036
10.9869	612.396	12.272
10.994	611.642	12.3403
10.9983	613.263	12.4087
11.0039	615.856	12.4771
11.0103	614.668	12.54541
11.016	619.829	12.61377
11.0218	628.148	12.6821
11.0275	631.292	12.7505
11.0328	641.144	12.8188
11.03756	649.034	12.8872
11.0441	648.253	12.9556
11.0504	651.385	13.0239
11.0559	654.03	13.0923
11.0618	654.423	13.1606
11.0667	652.342	13.229
11.0728	656.716	13.2974
11.0779	661.337	13.3657
11.0854	665.153	13.4341
11.0899	676.055	13.5024
11.0946	684.265	13.5708
11.1016	684.935	13.63916
11.107	687.649	13.70752
11.1132	694.435	13.7759
11.1176	693.303	13.8442
11.1237	690.353	13.9126
11.1298	693.242	13.981
11.136	696.738	14.0493
11.1412	700.925	14.1177
11.1463	709.28	14.186
11.1533	716.856	14.2544
11.1573	720.21	14.3228
11.1644	722.705	14.3911
11.1692	731.042	14.4595
11.1748	730.778	14.5278
11.1808	729.5387	14.5962
11.1878	731.249	14.6646
11.1931	732.196	14.73291
11.1976	736.191	14.80127
11.20337	742.565	14.8696
11.2099	748.321	14.938
11.2161	753.013	15.0063
11.2202	756.513	15.0747
11.2261	766.205	15.1431
11.2325	768.4975	15.2114
11.238	764.437	15.2798
11.2438	767.501	15.3481
11.2498	767.985	15.4165
11.2546	771.644	15.4849
11.2602	774.46	15.5532
11.26709	779.032	15.6216
11.2729	784.962	15.6899
11.2779	791.352	15.7583
11.2831	800.503	15.82666
11.2902	801.364	15.89502
11.2949	802.653	15.9634
11.302	802.394	16.0317
11.3054	802.799	16.1001
11.3124	806.027	16.1685
11.31747	808.266	16.2368
11.3235	810.516	16.3052
11.32884	814.965	16.3735
11.3345	821.845	16.4419
11.3411	830.481	16.5103
11.34608	834.476	16.5786
11.35134	837.2655	16.647
11.3566	835.85	16.7153
11.3633	836.999	16.7837
11.3684	839.396	16.8521
11.3742	839.7915	16.92041
11.3798	839.695	16.98877
11.3857	846.328	17.0571
11.392	852.831	17.1255
11.397	859.514	17.1938
11.4033	863.852	17.2622
11.4084	868.817	17.3306
11.4144	868.566	17.3989
11.4203	870.133	17.4673
11.4256	870.935	17.5356
11.4314	868.578	17.604
11.4374	867.393	17.6724
11.4434	872.194	17.7407
11.4486	882.2489	17.8091
11.4544	885.447	17.8774
11.4599	890.471	17.9458
11.4648	897.395	18.01416
11.471	896.607	18.08252
11.4776	899.124	18.1509
11.4827	900.987	18.2192
11.4883	897.6936	18.2876
11.4935	896.378	18.356
11.5003	899.564	18.4243
11.5058	906.266	18.4927
11.5116	910.031	18.561
11.5167	915.553	18.6294
11.5213	921.318	18.6978
11.5288	925.052	18.7661
11.5342	926.859	18.8345
11.5396	928.238	18.9028
11.5457	924.358	18.9712
11.5512	919.154	19.0396
11.55699	924.003	19.10791
11.5616	928.072	19.17627
11.56763	928.467	19.2446
11.5741	935.089	19.313
11.5799	940.724	19.3813
11.5853	944.511	19.4497
11.5904	948.516	19.5181
11.5959	950.423	19.5864
11.6027	945.86	19.6548
11.6077	942.618	19.7231
11.6142	943.75	19.7915
11.6203	947.9483	19.8599
11.6247	946.688	19.9282
[...]
13.3953	-48.1455	41.1782
13.397	-44.8281	41.188
13.3989	-37.7043	41.1978
13.39814	-43.168	41.20752
13.3998	-42.8944	41.2173
13.4001	-45.1944	41.2271
13.4012	-48.0157	41.2368
13.4012	-45.4339	41.2466
13.4037	-44.34	41.2563
13.4041	-37.4943	41.2661
13.4046	-39.1465	41.2759
13.4054	-45.20071	41.2856
13.4053	-47.7401	41.29541
13.4069	-48.1683	41.3052
13.4075	-42.2143	41.3149
13.408	-39.5495	41.3247
13.4094	-38.65757	41.3345
13.4106	-41.4739	41.3442
13.4111	-46.1242	41.354
13.4122	-49.9182	41.36377
13.4122	-48.6036	41.3735
13.413	-41.1964	41.3833
13.4135	-34.232	41.3931
13.4155	-40.8423	41.4028
13.4159	-48.5449	41.4126
13.41787	-48.6113	41.4224
13.4174	-46.2927	41.4321
13.418	-42.3833	41.4419
13.418	-36.2158	41.45166
13.4195	-38.6691	41.4614
13.4198	-42.8477	41.4712
13.4221	-48.5272	41.481
13.422	-50.2347	41.4907
13.4223	-44.3437	41.5005
13.4245	-37.1061	41.5103
13.4251	-35.8725	41.52002
13.4257	-42.266	41.5298
13.4254	-48.4489	41.5396
13.42725	-47.2073	41.5493
13.4281	-45.6364	41.5591
13.42869	-39.2562	41.5688
13.4289	-39.3756	41.5786
13.4305	-41.1136	41.5884
13.4311	-44.4809	41.5981
13.4322	-52.5251	41.60791
13.4319	-46.441	41.6177
13.4336	-41.951	41.6274
13.4339	-38.0679	41.6372
13.4345	-39.3554	41.647
13.4358	-46.0749	41.6567
13.4363	-47.3226	41.6665
13.43696	-46.4216	41.67627
13.4382	-44.136	41.686
13.4399	-39.1741	41.6958
13.4396	-38.5952	41.7056
13.4413	-38.7994	41.7153
13.4418	-46.9144	41.7251
13.4428	-48.1241	41.7349
13.4437	-46.2176	41.7446
13.44466	-41.5353	41.7544
13.4452	-37.61005	41.76416
13.4454	-39.6368	41.7739
13.4466	-44.8699	41.7837
13.4473	-46.1025	41.7935
13.4486	-46.3753	41.8032
13.4486	-44.1991	41.813
13.4489	-39.763	41.8228
13.4509	-36.335	41.83252
13.45196	-43.354	41.8423
13.4525	-45.6612	41.8521
13.4535	-48.4316	41.8618
13.4537	-45.022	41.8716
13.4557	-40.26495	41.8813
13.45542	-41.1266	41.8911
13.4565	-38.6137	41.9009
13.4573	-43.9494	41.9106
13.4589	-46.0229	41.92041
13.4585	-48.2267	41.9302
13.4593	-45.2221	41.9399
13.46	-36.0382	41.9497
13.4625	-38.0712	41.9595
13.4617	-42.46867	41.9692
13.4633	-47.2826	41.979
13.4639	-48.6076	41.98877
13.46355	-43.3565	41.9985
13.4649	-41.5426	42.0083
13.4667	-36.93644	42.0181
13.4671	-38.9279	42.0278
13.4673	-45.3575	42.0376
13.4678	-48.8275	42.0474
13.4695	-51.2671	42.0571
13.4709	-40.3187	42.0669
13.4705	-35.85054	42.07666
13.4718	-37.5118	42.0864
13.4727	-43.7134	42.0962
13.4739	-49.893	42.106
13.4747	-49.12891	42.1157
13.4738	-43.8861	42.1255
13.476	-38.7344	42.1353
13.4764	-38.9861	42.14502
13.4773	-40.8597	42.1548
13.4775	-47.3404	42.1646
13.4795	-50.7691	42.1743
13.48	-44.9034	42.1841
13.4803	-39.1086	42.1938
13.481	-35.5116	42.2036
13.4817	-39.6116	42.2134
13.4837	-46.3987	42.2231
13.4842	-47.5083	42.23291
13.4854	-47.8593	42.2427
13.48597	-41.3015	42.2524
13.486	-39.1603	42.2622
13.4883	-38.8268	42.272
13.4885	-40.0679	42.2817
13.48834	-50.0658	42.2915
13.4898	-46.6904	42.30127
13.4923	-43.3339	42.311
13.4919	-38.96413	42.3208
13.4928	-36.3432	42.3306
13.4922	-45.6803	42.3403
13.4933	-44.853	42.3501
13.4951	-45.237	42.3599
13.4953	-46.2454	42.3696
13.4961	-42.3017	42.3794
13.4978	-40.619	42.38916
13.49824	-38.1259	42.3989
13.4992	-45.2578	42.4087
13.5	-48.0305	42.4185
13.5001	-46.586	42.4282
13.501	-43.1413	42.438
13.501	-37.7861	42.4478
13.50265	-39.2558	42.45752
13.5038	-43.3519	42.4673
13.5037	-44.5126	42.4771
13.5059	-47.766	42.4868
13.5066	-46.8084	42.4966
13.5059	-41.349	42.5063
13.5072	-36.9116	42.5161
13.5077	-39.5441	42.5259
13.5103	-44.2109	42.5356
13.5099	-49.8375	42.54541
13.5109	-46.7954	42.5552
13.5127	-43.8362	42.5649
13.5118	-39.9283	42.5747
13.5138	-38.7505	42.5845
13.5138	-43.4059	42.5942