Folder: Stress_Strain_Analysis_Tools/data/processed_data_files/tensile (part 54)

File: 0.254_solid_uprint_typeiv_4545_r(3).dat
MTS793|BTW|ENU|1|2|.|/|:|1|0|0|A

Data Header:			0.254_solid_uprint_typeiv_4545_r0			Time:	20.0176	s	4/13/2019 6:50:46 PM
Data Acquisition:	Timed
Station Name:	ft40.cfg
Test File Name:	Type IV_Monotonic.tst
Displacement	Force	Running Time
mm	N	s
-40.046	-48.10844	0.0224609
-40.0458	-46.9857	0.0908203
-40.0414	-44.0147	0.15918
-40.0342	-39.5275	0.227539
-40.0287	-33.9556	0.295898
-40.02459	-28.3202	0.364258
-40.0171	-26.8541	0.432617
-40.0122	-23.311	0.500977
-40.00679	-17.361	0.569336
-40.0018	-14.915	0.637695
-39.9945	-14.3916	0.706055
-39.9901	-10.9166	0.774414
-39.9828	-8.86409	0.842773
-39.9785	-3.78971	0.911133
-39.9725	2.23535	0.979492
-39.9672	5.76528	1.04785
-39.9611	9.760993	1.11621
-39.9546	15.8578	1.18457
-39.9489	21.1791	1.25293
-39.943	19.8214	1.32129
-39.9378	22.7902	1.38965
-39.93243	27.8133	1.45801
-39.92728	26.63925	1.52637
-39.9216	32.56488	1.59473
-39.916	37.4091	1.66309
-39.9093	41.2242	1.73145
-39.9042	43.1188	1.7998
-39.8984	50.4715	1.86816
-39.8928	57.4694	1.93652
-39.8866	58.0854	2.00488
-39.8803	60.8212	2.07324
-39.8747	65.1589	2.1416
-39.8688	64.8614	2.20996
-39.8642	67.17424	2.27832
-39.8578	72.9512	2.34668
-39.8528	78.1555	2.41504
-39.8475	76.9495	2.4834
-39.8409	86.7942	2.55176
-39.8355	93.7694	2.62012
-39.8299	93.9441	2.68848
-39.8244	98.5024	2.75684
-39.8186	100.8912	2.8252
-39.813	102.959	2.89355
-39.80756	104.259	2.96191
-39.80138	105.999	3.03027
-39.7954	109.699	3.09863
-39.7897	112.748	3.16699
-39.7845	121.903	3.23535
-39.7775	126.932	3.30371
-39.7727	131.049	3.37207
-39.7674	132.81	3.44043
-39.7615	137.638	3.50879
-39.7557	138.4505	3.57715
-39.7496	140.29	3.64551
-39.7448	143.381	3.71387
-39.7394	143.446	3.78223
-39.7336	147.396	3.85059
-39.7263	154.147	3.91895
-39.7217	160.901	3.9873
-39.7159	166.0835	4.05566
-39.7104	168.662	4.12402
-39.705	172.372	4.19238
-39.69854	172.388	4.26074
-39.6926	175.181	4.3291
-39.6875	176.353	4.39746
-39.6813	177.217	4.46582
-39.6763	180.268	4.53418
-39.6696	190.455	4.60254
-39.6641	193.732	4.6709
-39.6595	198.023	4.73926
-39.6529	204.737	4.80762
-39.6473	206.001	4.87598
-39.6418	209.406	4.94434
-39.63512	212.6942	5.0127
-39.6299	212.384	5.08105
-39.6251	209.507	5.14941
-39.6193	211.954	5.21777
-39.6139	221.331	5.28613
-39.6077	224.964	5.35449
-39.6013	229.337	5.42285
-39.5961	237.084	5.49121
-39.5915	240.23	5.55957
-39.5847	242.578	5.62793
-39.5796	246.402	5.69629
-39.57457	247.657	5.76465
-39.56839	244.401	5.83301
-39.5622	245.623	5.90137
-39.55751	255.293	5.96973
-39.551	257.401	6.03809
-39.5455	261.396	6.10645
-39.5389	269.9393	6.1748
-39.5337	273.537	6.24316
-39.5282	276.952	6.31152
-39.5239	279.254	6.37988
-39.5176	281.21	6.44824
-39.512	279.156	6.5166
-39.50499	280.435	6.58496
-39.4993	287.247	6.65332
-39.494	290.577	6.72168
-39.48822	293.284	6.79004
-39.4826	299.072	6.8584
-39.4762	304.028	6.92676
-39.4704	308.557	6.99512
-39.4657	312.699	7.06348
-39.4592	312.301	7.13184
-39.4533	311.247	7.2002
-39.4491	314.896	7.26855
-39.4429	318.939	7.33691
-39.4377	319.711	7.40527
-39.4307	324.59	7.47363
-39.4265	329.415	7.54199
-39.421	334.603	7.61035
-39.41444	340.24	7.67871
-39.4098	343.11	7.74707
-39.4039	343.4429	7.81543
-39.3971	342.996	7.88379
-39.3899	346.3598	7.95215
-39.38615	350.442	8.02051
-39.3802	349.989	8.08887
-39.3738	355.447	8.15723
-39.36834	359.1	8.22559
-39.3624	362.916	8.29395
-39.3573	370.205	8.3623
-39.3515	373.335	8.43066
-39.3457	373.814	8.49902
-39.3423	374.174	8.56738
-39.3332	378.84	8.63574
-39.32843	380.765	8.7041
-39.3227	381.121	8.77246
-39.3173	383.849	8.84082
-39.3128	387.777	8.90918
-39.306	389.97	8.97754
-39.3004	397.311	9.0459
-39.2951	402.595	9.11426
-39.2882	402.624	9.18262
-39.2821	401.278	9.25098
-39.2775	407.617	9.31934
-39.2715	411.31	9.3877
-39.2667	409.22	9.45605
-39.2606	414.373	9.52441
-39.2561	415.438	9.59277
-39.25	418.002	9.66113
-39.2438	421.92	9.72949
-39.2379	426.813	9.79785
-39.2318	429.4097	9.86621
-39.2277	431.722	9.93457
-39.2211	437.289	10.00293
-39.2148	440.604	10.0713
-39.2096	438.339	10.1396
-39.2033	438.614	10.208
-39.19685	440.563	10.2764
-39.1923	442.978	10.3447
-39.1871	447.029	10.4131
-39.1811	450.173	10.4814
-39.1759	453.043	10.5498
-39.1687	456.439	10.6182
-39.16267	461.78	10.6865
-39.1571	462.801	10.7549
-39.1522	464.2612	10.8232
-39.1465	463.372	10.8916
-39.1407	465.353	10.96
-39.1352	468.595	11.02832
-39.1295	470.523	11.09668
-39.1235	475.024	11.165
-39.1177	475.88	11.2334
-39.1132	479.25	11.3018
-39.1062	485.305	11.3701
-39.10157	485.665	11.4385
-39.0954	488.228	11.5068
-39.0887	489.219	11.5752
-39.0847	488.642	11.6436
-39.0781	488.636	11.7119
-39.0717	491.515	11.7803
-39.0687	494.137	11.8486
-39.062	493.375	11.917
-39.05624	498.862	11.9854
-39.049	507.691	12.0537
-39.0437	505.191	12.12207
-39.0375	506.918	12.19043
-39.0329	510.764	12.2588
-39.027	509.547	12.3271
-39.0208	509.266	12.3955
-39.01524	511.081	12.4639
-39.009	511.6113	12.5322
-39.0044	509.136	12.6006
-38.9981	514.146	12.6689
-38.9934	522.707	12.7373
-38.9865	523.357	12.8057
-38.9822	523.103	12.874
-38.9759	525.939	12.9424
-38.9698	526.297	13.0107
-38.9647	524.526	13.0791
-38.9594	524.25	13.1475
-38.9536	525.671	13.21582
-38.9474	523.995	13.28418
-38.9424	524.6969	13.3525
-38.93539	535.196	13.4209
-38.9297	536.373	13.4893
-38.925	536.717	13.5576
-38.9186	539.968	13.626
-38.9122	538.133	13.6943
-38.9069	537.812	13.7627
-38.9014	537.567	13.8311
-38.8957	537.114	13.8994
-38.89	535.128	13.9678
-38.8852	537.5061	14.0361
-38.8793	542.4505	14.1045
-38.8729	543.718	14.1729
-38.86837	546.2356	14.2412
-38.8619	549.093	14.30957
-38.8553	546.641	14.37793
-38.8503	547.926	14.4463
-38.8445	545.767	14.5146
-38.8395	543.594	14.583
-38.8335	541.24	14.6514
-38.8275	543.125	14.7197
-38.8222	546.528	14.7881
-38.8165	548.045	14.8564
-38.8108	550.127	14.9248
-38.8052	552.761	14.9932
-38.7997	550.9834	15.0615
-38.79427	554.4115	15.1299
-38.788	553.093	15.1982
-38.7823	550.556	15.2666
-38.77673	543.749	15.335
-38.7704	546.106	15.40332
-38.7641	548.286	15.47168
-38.75946	548.682	15.54
-38.7537	550.257	15.6084
-38.7477	553.514	15.6768
-38.7425	553.362	15.7451
-38.7364	554.234	15.8135
-38.7303	554.014	15.8818
-38.7253	550.927	15.9502
-38.71899	544.775	16.0186
-38.7134	546.172	16.0869
-38.7086	548.462	16.1553
-38.7024	546.86	16.2236
-38.6969	546.1701	16.292
-38.6915	551.676	16.3604
-38.6847	550.634	16.4287
-38.6792	553.428	16.49707
-38.67432	553.61	16.56543
-38.6675	549.2533	16.6338
-38.6628	545.045	16.7021
-38.6565	544.823	16.7705
-38.6503	544.978	16.8389
-38.6452	544.096	16.9072
-38.6388	543.945	16.9756
-38.63353	547.232	17.0439
-38.62912	547.878	17.1123
-38.6222	549.999	17.1807
-38.6175	550.287	17.249
-38.611	550.117	17.3174
-38.6052	544.567	17.3857
-38.5988	542.672	17.4541
-38.593	543.277	17.5225
-38.58873	542.097	17.59082
-38.5823	542.513	17.65918
-38.5762	544.664	17.7275
-38.5711	544.736	17.7959
-38.5662	547.676	17.8643
-38.5606	547.53	17.9326
-38.5543	545.618	18.001
-38.5504	543.678	18.0693
-38.5436	543.458	18.1377
-38.5375	543.392	18.2061
-38.531	539.321	18.2744
-38.5269	539.524	18.3428
-38.52047	541.3974	18.4111
-38.5145	541.379	18.4795
-38.5097	545.339	18.5479
-38.5035	546.656	18.6162
-38.4969	544.176	18.68457
-38.4924	541.65	18.75293
-38.486	545.076	18.8213
-38.48	541.376	18.8896
-38.4747	539.545	18.958
-38.4687	540.286	19.0264
-38.4644	537.436	19.0947
-38.4575	538.293	19.1631
-38.451	541.011	19.2314
[...]
-37.5482	527.7738	30.0713
-37.5431	521.789	30.1396
-37.5368	521.674	30.208
-37.5308	523.238	30.2764
-37.5265	521.865	30.3447
-37.5196	523.504	30.4131
-37.5133	526.314	30.4814
-37.5082	526.794	30.5498
-37.503	529.041	30.6182
-37.4977	531.204	30.6865
-37.49028	530.271	30.7549
-37.4858	523.442	30.8232
-37.4799	522.018	30.8916
-37.4741	524.619	30.96
-37.4688	521.346	31.02832
-37.46244	520.063	31.09668
-37.4578	523.6994	31.165
-37.4523	525.315	31.2334
-37.4463	528.08	31.3018
-37.441	530.555	31.3701
-37.4341	530.663	31.4385
-37.4283	522.559	31.5068
-37.4235	520.477	31.5752
-37.417	523.697	31.6436
-37.4124	522.222	31.7119
-37.4066	520.848	31.7803
-37.3986	522.89	31.8486
-37.3952	523.35	31.917
-37.3895	525.72	31.9854
-37.3834	527.164	32.0537
-37.378	528.8219	32.12207
-37.3714	525.001	32.19043
-37.3663	523.154	32.2588
-37.36047	524.486	32.3271
-37.356	523.126	32.3955
-37.3486	520.102	32.4639
-37.3448	519.967	32.5322
-37.3369	520.992	32.6006
-37.3312	525.3974	32.6689
-37.3271	527.016	32.7373
-37.3203	525.638	32.8057
-37.3156	524.881	32.874
-37.30949	524.877	32.9424
-37.3034	525.219	33.0107
-37.2981	521.846	33.0791
-37.2914	519.207	33.1475
-37.2872	520.927	33.21582
-37.28	519.655	33.28418
-37.274	522.846	33.3525
-37.26939	525.02	33.4209
-37.2632	526.092	33.4893
-37.258	525.71	33.5576
-37.2515	524.097	33.626
-37.2458	528.748	33.6943
-37.2393	523.878	33.7627
-37.236	519.893	33.8311
-37.2308	521.58	33.8994
-37.2227	518.642	33.9678
-37.217	519.204	34.0361
-37.212	523.3797	34.1045
-37.2067	525.497	34.1729
-37.2004	523.068	34.2412
-37.1951	523.39	34.30957
-37.1893	525.021	34.37793
-37.1834	523.513	34.4463
-37.1781	520.466	34.5146
-37.1724	520.004	34.583
-37.1657	518.973	34.6514
-37.1614	519.904	34.7197
-37.1552	521.102	34.7881
-37.1512	521.514	34.8564
-37.1436	522.5882	34.9248
-37.1384	523	34.9932
-37.1333	525.142	35.0615
-37.127	525.806	35.1299
-37.1213	520.804	35.1982
-37.1157	520.711	35.2666
-37.1097	517.709	35.335
-37.10368	518.324	35.40332
-37.0984	518.244	35.47168
-37.0937	520.457	35.54
-37.0864	518.704	35.6084
-37.0813	520.144	35.6768
-37.0755	523.058	35.7451
-37.0691	525.158	35.8135
-37.0634	522.252	35.8818
-37.059	520.903	35.9502
-37.0529	518.048	36.0186
-37.0477	517.828	36.0869
-37.0416	518.17	36.1553
-37.03508	518.874	36.2236
-37.0307	517.15	36.292
-37.0243	518.255	36.3604
-37.0193	522.978	36.4287
-37.0123	524.2821	36.49707
-37.0076	520.843	36.56543
-37.0015	520.976	36.6338
-36.9964	519.639	36.7021
-36.9907	517.843	36.7705
-36.9845	517.078	36.8389
-36.9789	517.443	36.9072
-36.9722	515.0849	36.9756
-36.96616	515.859	37.0439
-36.962	521.635	37.1123
-36.9542	522.788	37.1807
-36.9498	521.241	37.249
-36.94421	521.848	37.3174
-36.9383	520.487	37.3857
-36.9342	516.998	37.4541
-36.9271	515.186	37.5225
-36.9206	516.237	37.59082
-36.9166	513.707	37.65918
-36.9115	513.3576	37.7275
-36.90527	518.066	37.7959
-36.8988	520.6925	37.8643
-36.8934	519.664	37.9326
-36.88834	520.4729	38.001
-36.8821	520.1814	38.0693
-36.8764	516.0777	38.1377
-36.8704	514.043	38.2061
-36.8647	515.206	38.2744
-36.8597	510.877	38.3428
-36.8542	509.513	38.4111
-36.8482	514.116	38.4795
-36.8418	517.239	38.5479
-36.8364	517.5	38.6162
-36.8305	518.466	38.68457
-36.8248	518.914	38.75293
-36.818	516.498	38.8213
-36.8127	512.7002	38.8896
-36.8076	511.747	38.958
-36.8009	508.18	39.0264
-36.797	505.536	39.0947
-36.791	508.468	39.1631
-36.78487	509.551	39.2314
-36.7791	507.9913	39.2998
-36.7735	507.743	39.3682
-36.7673	-41.2399	39.4365
-36.7612	-37.6552	39.5049
-36.7553	-38.6663	39.5732
-36.7502	-40.0342	39.6416
-36.74332	-44.7218	39.71
-36.7393	-46.5947	39.77832
-36.7329	-43.0171	39.84668
-36.7275	-42.2715	39.915
-36.7277	-36.6407	39.9248

File: 0.254_solid_uprint_typeiv_4545_r(4).dat
MTS793|BTW|ENU|1|2|.|/|:|1|0|0|A

Data Header:			0.254_solid_uprint_typeiv_4545_r0			Time:	20.0168	s	4/13/2019 6:53:58 PM
Data Acquisition:	Timed
Station Name:	ft40.cfg
Test File Name:	Type IV_Monotonic.tst
Displacement	Force	Running Time
mm	N	s
-40.0461	-257.691	0.0217285
-40.0449	-260.923	0.0900879
-40.0404	-254.633	0.158447
-40.0327	-248.838	0.226807
-40.0273	-246.78	0.295166
-40.0222	-243.517	0.363525
-40.0165	-239.586	0.431885
-40.0111	-240.6662	0.500244
-40.00605	-240.147	0.568604
-39.999	-233.894	0.636963
-39.9934	-228.668	0.705322
-39.9882	-226.531	0.773682
-39.9831	-220.7093	0.842041
-39.9773	-216.83	0.9104
-39.9709	-211.224	0.97876
-39.9663	-204.434	1.04712
-39.9595	-202.995	1.11548
-39.9541	-203.689	1.18384
-39.9487	-200.866	1.2522
-39.942	-197.2426	1.32056
-39.9374	-195.4436	1.388916
-39.9309	-192.777	1.45728
-39.9265	-185.987	1.52563
-39.9197	-181.861	1.59399
-39.9151	-173.724	1.66235
-39.9084	-169.025	1.73071
-39.9035	-165.336	1.79907
-39.8971	-167.8757	1.86743
-39.8909	-163.687	1.935791
-39.8864	-160.226	2.00415
-39.8806	-159.379	2.07251
-39.8742	-155.317	2.14087
-39.86837	-149.673	2.20923
-39.8629	-146.73	2.27759
-39.8568	-139.814	2.34595
-39.8519	-132.8764	2.41431
-39.8468	-131.874	2.482666
-39.8404	-130.596	2.55103
-39.83506	-124.173	2.61938
-39.82909	-121.197	2.68774
-39.8237	-122.302	2.7561
-39.817	-118.634	2.82446
-39.8115	-114.258	2.89282
-39.8061	-110.985	2.96118
-39.8008	-104.425	3.029541
-39.7947	-97.8997	3.0979
-39.7891	-96.0917	3.16626
-39.78299	-93.576	3.23462
-39.7773	-86.4594	3.30298
-39.7712	-85.047	3.37134
-39.7665	-84.5335	3.4397
-39.7606	-81.6857	3.50806
-39.7545	-78.4365	3.576416
-39.7491	-73.261	3.64478
-39.7449	-66.9076	3.71313
-39.7363	-63.8931	3.78149
-39.7324	-59.8697	3.84985
-39.7262	-54.788	3.91821
-39.72131	-49.0223	3.98657
-39.7139	-47.7368	4.05493
-39.7089	-46.4247	4.123291
-39.7031	-44.1127	4.19165
-39.6972	-42.8024	4.26001
-39.6929	-36.5577	4.32837
-39.687	-32.5651	4.39673
-39.6803	-27.443	4.46509
-39.6741	-25.1419	4.53345
-39.6691	-18.1795	4.60181
-39.6639	-12.9123	4.670166
-39.6574	-10.677	4.73853
-39.6524	-6.95043	4.80688
-39.6472	-6.95173	4.87524
-39.6415	-3.48647	4.9436
-39.6347	0.976439	5.01196
-39.6279	3.06028	5.08032
-39.6247	3.65632	5.14868
-39.6191	11.185	5.217041
-39.6126	18.7892	5.2854
-39.6061	23.4713	5.35376
-39.6004	25.6039	5.42212
-39.59576	29.36725	5.49048
-39.5888	30.6655	5.55884
-39.5832	35.605	5.6272
-39.5778	37.1449	5.69556
-39.57246	39.4897	5.763916
-39.5669	39.8656	5.83228
-39.5611	46.7488	5.90063
-39.554	55.5414	5.96899
-39.5495	57.3197	6.03735
-39.5437	62.40406	6.10571
-39.5381	67.5846	6.17407
-39.5312	69.1666	6.24243
-39.52597	72.3951	6.310791
-39.5216	74.2575	6.37915
-39.5152	75.9845	6.44751
-39.50951	75.86393	6.51587
-39.5043	84.274	6.58423
-39.4985	90.337	6.65259
-39.4935	92.4453	6.72095
-39.488	99.3686	6.78931
-39.4796	105.57	6.857666
-39.47496	105.3708	6.92603
-39.4698	110.64	6.99438
-39.4639	112.772	7.06274
-39.45882	111.251	7.1311
-39.4528	112.023	7.19946
-39.4474	120.069	7.26782
-39.4414	124.988	7.33618
-39.4365	126.906	7.404541
-39.4311	135.465	7.4729
-39.4239	139.694	7.54126
-39.4189	142.267	7.60962
-39.4133	145.823	7.67798
-39.4081	149.423	7.74634
-39.4006	147.227	7.8147
-39.3957	151.381	7.88306
-39.39106	156.478	7.951416
-39.386	160.314	8.01978
-39.3793	162.682	8.08813
-39.3722	168.181	8.15649
-39.3675	173.825	8.22485
-39.3631	179.148	8.29321
-39.3558	181.816	8.36157
-39.3496	182.322	8.42993
-39.3444	183.14	8.498291
-39.3397	186.182	8.56665
-39.3335	190.9606	8.63501
-39.3275	192.252	8.70337
-39.322	196.882	8.77173
-39.31628	203.5137	8.84009
-39.3106	207.425	8.90845
-39.305	213.172	8.97681
-39.2993	218.5934	9.045166
-39.29509	219.081	9.11353
-39.288	219.595	9.18188
-39.2817	224.3273	9.25024
-39.275	226.468	9.3186
-39.2708	228.133	9.38696
-39.2644	232.25	9.45532
-39.2597	236.409	9.52368
-39.2541	241.069	9.592041
-39.2482	249.873	9.6604
-39.242	252.051	9.72876
-39.2372	253.151	9.79712
-39.231	255.979	9.86548
-39.2245	261.972	9.93384
-39.2201	260.642	10.0022
-39.2146	263.1713	10.0706
-39.209	268.53	10.1389
-39.202	269.54	10.2073
-39.1963	274.691	10.2756
-39.1908	282.429	10.344
-39.1849	285.644	10.4124
-39.1801	286.3103	10.4807
-39.1733	292.086	10.5491
-39.1675	297.065	10.6174
-39.162	296.992	10.6858
-39.1567	299.22	10.75415
-39.1503	301.913	10.82251
-39.1456	303.987	10.8909
-39.141	308.774	10.9592
-39.1344	314.608	11.0276
-39.1274	317.789	11.0959
-39.1219	321.181	11.1643
-39.117	327.97	11.2327
-39.1108	331.365	11.301
-39.1054	330.218	11.3694
-39.1005	332.769	11.4377
-39.0942	335.611	11.5061
-39.0887	337.151	11.5745
-39.083	340.084	11.6428
-39.0766	345.604	11.7112
-39.0717	348.329	11.7795
-39.0673	352.2207	11.8479
-39.0603	360.76	11.91626
-39.0541	363.259	11.9846
-39.048	365.517	12.053
-39.0433	367.129	12.1213
-39.0359	367.025	12.1897
-39.03241	369.915	12.2581
-39.0254	372.653	12.3264
-39.02	374.852	12.3948
-39.0134	377.288	12.4631
-39.009	384.428	12.5315
-39.00412	392.329	12.5999
-38.9985	393.374	12.6682
-38.9902	397.014	12.7366
-38.9868	398.803	12.8049
-38.9801	399.244	12.8733
-38.9749	402.347	12.94165
-38.9688	404.262	13.01001
-38.9631	404.943	13.0784
-38.9583	409.452	13.1467
-38.9514	415.003	13.2151
-38.9462	420.46	13.2834
-38.9402	422.832	13.3518
-38.9358	428.99	13.4202
-38.9289	431.498	13.4885
-38.9241	431.75	13.5569
-38.9172	436.368	13.6252
-38.9117	436.792	13.6936
-38.9068	434.233	13.762
-38.9019	438.799	13.8303
-38.8953	444.96	13.8987
-38.8892	446.93	13.967
-38.8835	452.4035	14.0354
-38.8778	458.182	14.10376
-38.8722	460.001	14.1721
-38.8651	462.31	14.2405
-38.8613	465.07	14.3088
-38.8552	464.884	14.3772
-38.85004	462.519	14.4456
-38.8434	465.803	14.5139
-38.838	474.17	14.5823
-38.8324	474.896	14.6506
-38.8272	478.05	14.719
-38.821	485.271	14.7874
-38.8162	486.749	14.8557
-38.8089	489.618	14.9241
-38.8034	495.03	14.9924
-38.7975	493.623	15.0608
-38.79285	490.208	15.12915
-38.7867	496.01	15.19751
-38.7809	498.637	15.2659
-38.7754	501.37	15.3342
-38.77	505.703	15.4026
-38.7647	509.954	15.4709
-38.7573	513.709	15.5393
-38.7524	517.2511	15.6077
-38.7464	518.75	15.676
-38.7406	519.781	15.7444
-38.7356	517.351	15.8127
-38.7303	522.122	15.8811
-38.7236	523.302	15.9495
-38.7182	522.426	16.0178
-38.7119	526.251	16.0862
-38.7072	532.6	16.1545
-38.7015	536.216	16.2229
-38.695	542.899	16.29126
-38.6898	543.561	16.3596
-38.6843	540.879	16.428
-38.6776	542.328	16.4963
-38.672	543.758	16.5647
-38.6667	543.854	16.6331
-38.6626	544.951	16.7014
-38.6553	547.141	16.7698
-38.6505	550.35	16.8381
-38.6451	555.861	16.9065
-38.6386	559.824	16.9749
-38.633	559.984	17.0432
-38.628	561.344	17.1116
-38.6216	564.4137	17.1799
-38.61628	563.545	17.2483
-38.6098	562.597	17.31665
-38.6047	562.656	17.38501
-38.59771	564.812	17.4534
-38.5925	565.85	17.5217
-38.5876	570.988	17.5901
-38.5815	573.825	17.6584
-38.5757	573.95	17.7268
-38.5707	574.922	17.7952
-38.5646	578.542	17.8635
-38.55809	577.623	17.9319
-38.5529	576.25	18.0002
-38.5475	578.373	18.0686
-38.5409	574.742	18.137
-38.5349	577.5777	18.2053
-38.5299	581.261	18.2737
-38.5254	581.668	18.342
-38.5188	580.807	18.4104
-38.5133	583.38	18.47876
-38.5074	588.9986	18.5471
-38.5011	585.588	18.6155
-38.4961	583.569	18.6838
-38.4903	585.546	18.7522
-38.4832	579.913	18.8206
-38.4794	582.57	18.8889
-38.4737	583.484	18.9573
-38.4675	584.486	19.0256
-38.462	582.625	19.094
-38.4566	589.188	19.1624
[...]
-37.0226	542.937	36.3596
-37.0184	542.586	36.428
-37.0123	542.551	36.4963
-37.00584	538.152	36.5647
-37.0006	536.791	36.6331
-36.9953	537.942	36.7014
-36.9885	537.019	36.7698
-36.984	535.439	36.8381
-36.9781	536.812	36.9065
-36.97073	542.693	36.9749
-36.9654	542.538	37.0432
-36.9601	542.488	37.1116
-36.9543	542.96	37.1799
-36.9498	538.14	37.2483
-36.9429	537.4574	37.31665
-36.9385	535.911	37.38501
-36.9317	534.9342	37.4534
-36.9259	533.005	37.5217
-36.9194	535.6972	37.5901
-36.9151	540.012	37.6584
-36.9091	538.459	37.7268
-36.904	538.611	37.7952
-36.8986	541.277	37.8635
-36.8913	538.117	37.9319
-36.8867	537.418	38.0002
-36.8811	536.1167	38.0686
-36.8748	531.729	38.137
-36.8701	529.019	38.2053
-36.864	533.192	38.2737
-36.8574	536.042	38.342
-36.8522	534.073	38.4104
-36.84713	534.995	38.47876
-36.8401	536.333	38.5471
-36.8355	532.7041	38.6155
-36.8296	531.823	38.6838
-36.8233	527.923	38.7522
-36.8144	-12.3858	38.8206
-36.8121	-46.9818	38.8889
-36.80592	-43.4522	38.9573
-36.8006	-43.0312	39.0256
-36.7952	-41.6621	39.094
-36.7895	-39.1453	39.1624
-36.78384	-38.7962	39.2307
-36.778	-37.5047	39.2991
-36.771	-37.6453	39.3674
-36.7662	-40.5364	39.4358
-36.7617	-45.0996	39.50415
-36.7544	-45.3741	39.57251
-36.7496	-44.3136	39.6409
-36.7442	-42.8223	39.7092
-36.7383	-41.9033	39.7776
-36.7327	-39.0522	39.8459
-36.7268	-38.5005	39.9143
-36.7207	-38.38858	39.9827
-36.71833	-43.9332	40.012

Data Header:			0.254_solid_uprint_typeiv_4545_r0			Time:	40.792	s	4/13/2019 6:54:19 PM
Data Acquisition:	Timed
Station Name:	ft40.cfg
Test File Name:	Type IV_Monotonic.tst
Displacement	Force	Running Time
mm	N	s
-36.7179	-46.6049	40.0217
-36.71698	-40.9946	40.0315
-36.7171	-38.0444	40.04126
-36.7148	-35.32	40.051
-36.7139	-41.362	40.0608
-36.7137	-47.7537	40.0706
-36.7122	-42.5904	40.0803
-36.7113	-40.5561	40.0901
-36.7112	-37.67514	40.0999
-36.7092	-37.99416	40.1096
-36.7098	-41.0922	40.1194
-36.7084	-41.1395	40.12915
-36.7077	-47.2233	40.1389
-36.7082	-42.2926	40.1487
-36.7064	-38.9578	40.1584
-36.7057	-37.0021	40.1682
-36.70417	-38.5924	40.178
-36.7028	-44.22324	40.1877
-36.7038	-45.3588	40.19751
-36.7024	-42.4955	40.2073
-36.7023	-39.4905	40.217
-36.7008	-38.707	40.2268
-36.6998	-39.5296	40.2366
-36.6994	-41.1142	40.2463
-36.6989	-43.9471	40.2561
-36.6982	-43.6723	40.2659
-36.6966	-42.6508	40.2756
-36.6955	-38.471	40.2854
-36.6949	-37.61726	40.2952
-36.6948	-41.0195	40.3049
-36.6936	-42.669	40.3147
-36.6918	-42.4928	40.3245
-36.6911	-41.8401	40.3342
-36.6908	-42.089	40.344
-36.6901	-40.7295	40.35376
-36.6886	-37.2759	40.3635
-36.6875	-39.2796	40.3733
-36.687	-41.8053	40.3831
-36.68623	-43.7524	40.3928
-36.686	-42.23069	40.4026
-36.6858	-37.3885	40.4124
-36.6838	-39.7934	40.4221
-36.6839	-39.3655	40.4319
-36.68277	-42.3614	40.44165
-36.6814	-43.6747	40.4514
-36.681	-43.1946	40.4612
-36.6814	-42.7912	40.4709
-36.6793	-38.65551	40.4807
-36.6786	-37.2319	40.4905
-36.6769	-40.32655	40.5002
-36.676	-43.4554	40.51001
-36.6763	-45.8433	40.5198
-36.6747	-39.2887	40.5295
-36.6744	-39.0881	40.5393
-36.674	-37.8375	40.5491
-36.6738	-38.8788	40.5588
-36.672	-42.40683	40.5686
-36.6712	-42.9841	40.5784
-36.6705	-46.4519	40.5881
-36.6698	-42.02742	40.5979
-36.6675	-36.2204	40.6077
-36.6677	-38.1034	40.6174
-36.6673	-43.2535	40.6272
-36.6673	-46.112	40.637
-36.6664	-42.3084	40.6467
-36.6656	-40.4971	40.6565
-36.66423	-37.9049	40.66626
-36.6645	-37.761	40.676
-36.6629	-39.59082	40.6858
-36.66106	-45.0196	40.6956
-36.6615	-45.4109	40.7053
-36.66	-42.2763	40.7151
-36.6603	-38.4274	40.7249
-36.6592	-36.57	40.7346
-36.6569	-39.6757	40.7444
-36.65683	-44.2096	40.75415
-36.6562	-43.5758	40.7639
-36.6548	-43.116	40.7737
-36.6543	-37.90966	40.7834