Folder: Stress_Strain_Analysis_Tools/data/processed_data_files/tensile (part 26)

File: 0.254_hd_uprint_typeiv_4545_r(4).dat
MTS793|BTW|ENU|1|2|.|/|:|1|0|0|A

Data Header:			0.254_hd_uprint_typeiv_4545_r0			Time:	20.0193	s	4/13/2019 7:19:43 PM
Data Acquisition:	Timed
Station Name:	ft40.cfg
Test File Name:	monotonic_0.2540_typeiv_hd_4545_uprint.tst
Displacement	Force	Running Time
mm	N	s
-40.0338	-5.3655	0.0224609
-40.034	-7.20866	0.0908203
-40.0291	-0.716239	0.15918
-40.023	5.40429	0.227539
-40.0171	7.11642	0.295898
-40.0118	5.60184	0.364258
-40.0055	7.36735	0.432617
-40.0005	13.5753	0.500977
-39.9945	14.0159	0.569336
-39.9892	18.2244	0.637695
-39.9823	24.2119	0.706055
-39.97702	26.6913	0.774414
-39.9699	33.08316	0.842773
-39.9661	39.6526	0.911133
-39.9603	41.4575	0.979492
-39.95303	40.7086	1.04785
-39.9499	44.8883	1.11621
-39.9426	48.8842	1.18457
-39.9377	48.5866	1.25293
-39.9319	51.567	1.32129
-39.9261	55.7933	1.38965
-39.9213	59.6351	1.45801
-39.9154	66.9912	1.52637
-39.9086	73.477	1.59473
-39.9042	73.8471	1.66309
-39.8983	75.4894	1.73145
-39.89193	80.3825	1.7998
-39.8858	84.8612	1.86816
-39.8808	83.911	1.93652
-39.8756	84.2999	2.00488
-39.86932	89.4219	2.07324
-39.8641	93.2899	2.1416
-39.8584	97.5224	2.20996
-39.8532	105.93	2.27832
-39.84597	107.83	2.34668
-39.8408	109.441	2.41504
-39.8351	114.758	2.4834
-39.8277	120.619	2.55176
-39.8232	118.057	2.62012
-39.8183	119.74	2.68848
-39.8116	125.467	2.75684
-39.8069	126.682	2.8252
-39.8015	131.714	2.89355
-39.7944	135.023	2.96191
-39.7887	137.778	3.03027
-39.7831	139.6694	3.09863
-39.778	148.725	3.16699
-39.7729	150.9	3.23535
-39.76651	150.5939	3.30371
-39.7605	154.339	3.37207
-39.7556	155.897	3.44043
-39.7498	158.612	3.50879
-39.7429	161.4425	3.57715
-39.7387	165.535	3.64551
-39.7322	169.2836	3.71387
-39.7274	173.2628	3.78223
-39.7204	180.5804	3.85059
-39.7152	184.368	3.91895
-39.7106	184.322	3.9873
-39.7031	188.151	4.05566
-39.6987	188.051	4.12402
-39.6929	191.777	4.19238
-39.6876	194.268	4.26074
-39.6822	197.248	4.3291
-39.6751	198.728	4.39746
-39.6704	204.8903	4.46582
-39.6646	212.434	4.53418
-39.6581	216.442	4.60254
-39.6537	218.844	4.6709
-39.6482	221.642	4.73926
-39.6413	219.964	4.80762
-39.6358	223.872	4.87598
-39.6301	227.434	4.94434
-39.6241	227.977	5.0127
-39.6178	230.4122	5.08105
-39.613	237.105	5.14941
-39.6075	242.809	5.21777
-39.5999	248.162	5.28613
-39.5952	249.866	5.35449
-39.5903	254.3981	5.42285
-39.5844	254.07	5.49121
-39.5792	257.315	5.55957
-39.5731	258.466	5.62793
-39.5669	258.022	5.69629
-39.561	258.958	5.76465
-39.55648	266.509	5.83301
-39.5504	272.4574	5.90137
-39.5449	275.966	5.96973
-39.5389	282.389	6.03809
-39.5335	285.686	6.10645
-39.5271	286.51	6.1748
-39.52161	288.527	6.24316
-39.516	290.7764	6.31152
-39.5105	288.042	6.37988
-39.5041	290.8	6.44824
-39.49894	296.398	6.5166
-39.493	302.257	6.58496
-39.4872	304.651	6.65332
-39.4825	311.012	6.72168
-39.476	315.465	6.79004
-39.4718	317.542	6.8584
-39.4643	321.107	6.92676
-39.45908	320.5083	6.99512
-39.4545	318.917	7.06348
-39.4487	319.374	7.13184
-39.4414	328.096	7.2002
-39.4365	329.709	7.26855
-39.4301	333.374	7.33691
-39.4241	339.297	7.40527
-39.4197	344.569	7.47363
-39.4125	347.795	7.54199
-39.4089	349.2486	7.61035
-39.4022	351.214	7.67871
-39.396	348.339	7.74707
-39.3911	348.676	7.81543
-39.3845	355.519	7.88379
-39.37883	357.601	7.95215
-39.3738	361.207	8.02051
-39.3674	367.457	8.08887
-39.362	371.3197	8.15723
-39.357	375.445	8.22559
-39.3517	378.645	8.29395
-39.3459	380.665	8.3623
-39.3394	376.637	8.43066
-39.3342	379.765	8.49902
-39.3293	382.63	8.56738
-39.3226	384.64	8.63574
-39.3164	387	8.7041
-39.31097	392.831	8.77246
-39.3051	396.232	8.84082
-39.3007	402.372	8.90918
-39.2941	406.117	8.97754
-39.28791	406.966	9.0459
-39.2834	406.319	9.11426
-39.2764	408.3833	9.18262
-39.2719	409.954	9.25098
-39.2652	409.075	9.31934
-39.2613	414.334	9.3877
-39.2541	417.894	9.45605
-39.248	421.457	9.52441
-39.2425	427.3544	9.59277
-39.2373	431.39	9.66113
-39.2319	431.912	9.72949
-39.2249	431.526	9.79785
-39.2196	435.705	9.86621
-39.2139	436.405	9.93457
-39.2088	435.034	10.00293
-39.2033	437.907	10.0713
-39.1963	439.655	10.1396
-39.1912	444.04	10.208
-39.1857	449.099	10.2764
-39.17968	453.777	10.3447
-39.1741	452.593	10.4131
-39.168	456.274	10.4814
-39.163	461.705	10.5498
-39.1571	460.334	10.6182
-39.15107	460.001	10.6865
-39.1453	463.165	10.7549
-39.1413	461.251	10.8232
-39.1345	465.524	10.8916
-39.1293	469.243	10.96
-39.1225	473.66	11.02832
-39.1172	473.315	11.09668
-39.1129	476.065	11.165
-39.106	482.746	11.2334
-39.1001	481.264	11.3018
-39.0943	482.731	11.3701
-39.0897	483.801	11.4385
-39.08252	482.888	11.5068
-39.0767	485.217	11.5752
-39.0723	489.165	11.6436
-39.0659	489.065	11.7119
-39.0606	491.166	11.7803
-39.05455	496.711	11.8486
-39.0492	502.578	11.917
-39.0435	499.255	11.9854
-39.03801	499.909	12.0537
-39.0319	499.92	12.12207
-39.026	498.874	12.19043
-39.0199	499.785	12.2588
-39.015	503.178	12.3271
-39.0088	504.1	12.3955
-39.003	502.932	12.4639
-38.9972	508.784	12.5322
-38.993	513.738	12.6006
-38.9865	513.28	12.6689
-38.9811	512.934	12.7373
-38.9749	513.091	12.8057
-38.96904	512.166	12.874
-38.9637	511.103	12.9424
-38.9584	512.273	13.0107
-38.95282	509.87	13.0791
-38.9459	510.612	13.1475
-38.94072	516.251	13.21582
-38.9351	517.516	13.28418
-38.9298	519.712	13.3525
-38.923	519.074	13.4209
-38.9182	518.009	13.4893
-38.91124	515.411	13.5576
-38.9063	514.69	13.626
-38.9007	514.336	13.6943
-38.8952	511.849	13.7627
-38.8886	513.477	13.8311
-38.88382	516.383	13.8994
-38.8778	517.752	13.9678
-38.8718	519.589	14.0361
-38.866	521.516	14.1045
-38.8601	519.128	14.1729
-38.8545	518.521	14.2412
-38.8487	515.597	14.30957
-38.8443	511.909	14.37793
-38.8368	508.887	14.4463
-38.8334	512.201	14.5146
-38.8267	514.42	14.583
-38.8216	513.989	14.6514
-38.8157	516.619	14.7197
-38.8086	520.44	14.7881
-38.8035	516.571	14.8564
-38.7984	518.621	14.9248
-38.7926	515.666	14.9932
-38.7875	510.849	15.0615
-38.7823	506.364	15.1299
-38.7758	508.432	15.1982
-38.77	510.844	15.2666
-38.7646	510.079	15.335
-38.7591	511.366	15.40332
-38.7533	514.013	15.47168
-38.7468	511.925	15.54
-38.7409	513.683	15.6084
-38.7347	514.124	15.6768
-38.72913	508.173	15.7451
-38.7235	503.935	15.8135
-38.7176	506.8298	15.8818
-38.7132	508.06	15.9502
-38.7075	505.786	16.0186
-38.7015	506.633	16.0869
-38.6954	510.755	16.1553
-38.689	511.193	16.2236
-38.6837	512.5871	16.292
-38.6787	510.824	16.3604
-38.6726	506.6626	16.4287
-38.6669	504.499	16.49707
-38.6613	505.427	16.56543
-38.655	504.392	16.6338
-38.6493	502.751	16.7021
-38.6446	504.4093	16.7705
-38.6385	506.98	16.8389
-38.6316	508.8551	16.9072
-38.6289	509.45	16.9756
-38.6213	510.03	17.0439
-38.6163	507.12	17.1123
-38.6102	503.993	17.1807
-38.6041	507.485	17.249
-38.5989	502.7836	17.3174
-38.59296	500.891	17.3857
-38.588	501.627	17.4541
-38.5816	502.335	17.5225
-38.5752	506.458	17.59082
-38.5698	507.676	17.65918
-38.5639	508.313	17.7275
-38.5585	505.4213	17.7959
-38.5531	504.705	17.8643
-38.5473	504.437	17.9326
-38.5416	500.977	18.001
-38.5359	498.688	18.0693
-38.5309	500.1554	18.1377
-38.525	499.84	18.2061
-38.5188	504.802	18.2744
-38.514	506.104	18.3428
-38.5079	504.6622	18.4111
-38.503	503.6019	18.4795
-38.497	505.227	18.5479
-38.4907	504.701	18.6162
-38.4846	500.634	18.68457
-38.4795	499.983	18.75293
-38.4738	498.552	18.8213
-38.4683	499.657	18.8896
-38.4627	501.749	18.958
-38.4571	502.79	19.0264
-38.4513	501.437	19.0947
-38.4453	502.591	19.1631
-38.4394	505.345	19.2314
-38.4349	504.24	19.2998
[...]
-37.6062	490.359	29.22168
-37.6019	491.654	29.2803
-37.5966	487.609	29.3389
-37.5917	487.654	29.3975
-37.5871	485.983	29.4561
-37.5827	485.474	29.5146
-37.5783	484.668	29.5732
-37.5731	484.205	29.6318
-37.5684	486.205	29.69043
-37.5638	484.609	29.749
-37.5586	487.54	29.8076
-37.552	488.0318	29.8662
-37.5479	490.0545	29.9248
-37.5437	489.944	29.9834
-37.5388	491.661	30.042
-37.5341	489.054	30.1006
-37.5284	487.564	30.15918
-37.5238	488.495	30.2178
-37.5196	485.637	30.2764
-37.514	485.157	30.335
-37.5101	482.284	30.3936
-37.5055	484.185	30.4521
-37.5001	480.093	30.5107
-37.4945	484.149	30.5693
-37.4903	479.917	30.62793
-37.48455	485.973	30.6865
-37.4797	484.951	30.7451
-37.4766	486.202	30.8037
-37.46965	485.604	30.8623
-37.465	487.66	30.9209
-37.4609	488.103	30.9795
-37.4563	487.69	31.0381
-37.4506	488.644	31.09668
-37.4455	487.7374	31.1553
-37.4407	487.211	31.2139
-37.4356	483.9025	31.2725
-37.43119	482.893	31.3311
-37.4267	481.385	31.3896
-37.42189	482.466	31.4482
-37.417	482.21	31.5068
-37.4118	479.7417	31.56543
-37.4067	484.792	31.624
-37.4015	483.326	31.6826
-37.39719	485.27	31.7412
-37.3922	485.838	31.7998
-37.3867	487.696	31.8584
-37.3817	485.952	31.917
-37.3772	486.138	31.9756
-37.3723	485.523	32.03418
-37.3671	483.176	32.0928
-37.36245	482.208	32.1514
-37.3582	479.621	32.21
-37.3535	478.7868	32.2686
-37.3476	475.603	32.3271
-37.3432	479.45	32.3857
-37.3378	475.178	32.4443
-37.333	477.747	32.50293
-37.3282	477.295	32.5615
-37.3239	478.979	32.6201
-37.3181	478.816	32.6787
-37.3139	480.665	32.7373
-37.3097	480.265	32.7959
-37.3036	479.396	32.8545
-37.29932	480.46	32.9131
-37.293	478.112	32.97168
-37.2894	476.37	33.0303
-37.2848	472.238	33.0889
-37.279	466.654	33.1475
-37.2714	-141.878	33.2061
-37.2701	-41.638	33.2646
-37.2646	-45.6116	33.3232
-37.2592	-45.7127	33.3818
-37.255	-43.8481	33.44043
-37.2507	-42.9231	33.499
-37.2454	-41.8229	33.5576
-37.242	-41.12326	33.6162
-37.2356	-38.53162	33.6748
-37.2317	-39.3862	33.7334
-37.2266	-39.8307	33.792
-37.221	-38.9255	33.8506
-37.2174	-42.0199	33.90918
-37.21191	-41.0211	33.9678
-37.2062	-45.1535	34.0264
-37.2015	-44.4176	34.085
-37.19611	-49.1845	34.1436
-37.1915	-44.9706	34.2021
-37.1863	-48.9096	34.2607
-37.18285	-46.4637	34.3193
-37.1766	-47.3068	34.37793
-37.171	-45.0464	34.4365
-37.1662	-44.5478	34.4951
-37.163	-41.0823	34.5537
-37.1575	-39.9858	34.6123
-37.15292	-39.7244	34.6709
-37.1484	-38.4737	34.7295
-37.14299	-39.27029	34.7881
-37.13903	-39.6274	34.84668
-37.1325	-40.94558	34.9053
-37.1283	-41.4833	34.9639
-37.1226	-44.7364	35.0225
-37.1192	-44.8558	35.0811
-37.1128	-43.5424	35.1396
-37.109	-46.2228	35.1982
-37.1043	-43.1555	35.2568
-37.0989	-46.1868	35.31543
-37.0945	-43.485	35.374
-37.0892	-41.9803	35.4326
-37.0844	-39.11187	35.4912
-37.0805	-41.3762	35.5498
-37.0738	-38.3454	35.6084
-37.0692	-39.3923	35.667
-37.0642	-41.073	35.7256
-37.0612	-42.4353	35.78418
-37.0555	-43.8774	35.8428
-37.0497	-42.7109	35.9014
-37.0444	-46.6206	35.96
-37.0405	-44.1806	36.0186
-37.0359	-46.5027	36.0771
-37.03	-45.2416	36.1357
-37.0248	-45.8962	36.1943
-37.0213	-44.0106	36.25293
-37.0156	-47.6387	36.3115
-37.0109	-43.1018	36.3701
-37.0068	-42.4327	36.4287
-37.0014	-41.0577	36.4873
-36.9969	-38.2931	36.5459
-36.9911	-37.8829	36.6045
-36.9859	-37.4906	36.6631
-36.98177	-40.5185	36.72168
-36.9769	-39.8831	36.7803
-36.9727	-42.83313	36.8389
-36.9675	-42.80352	36.8975
-36.9627	-44.0849	36.9561
-36.9576	-46.55249	37.0146
-36.9526	-43.9658	37.0732
-36.9475	-45.8286	37.1318
-36.9434	-43.9713	37.19043
-36.9377	-45.1456	37.249
-36.9328	-40.752	37.3076
-36.9281	-43.4047	37.3662
-36.9243	-41.1258	37.4248
-36.9179	-39.7457	37.4834
-36.9136	-40.9728	37.542

File: 0.254_hd_uprint_typeiv_4545_r(5).dat
MTS793|BTW|ENU|1|2|.|/|:|1|0|0|A

Data Header:			0.254_hd_uprint_typeiv_4545_r0			Time:	20.0176	s	4/13/2019 7:22:03 PM
Data Acquisition:	Timed
Station Name:	ft40.cfg
Test File Name:	monotonic_0.2540_typeiv_hd_4545_uprint.tst
Displacement	Force	Running Time
mm	N	s
-40.03418	-207.448	0.0227051
-40.0315	-207.063	0.0910645
-40.0263	-201.538	0.159424
-40.0216	-196.305	0.2277832
-40.0151	-191.168	0.296143
-40.0109	-189.362	0.364502
-40.0044	-186.071	0.432861
-39.9986	-180.657	0.5012207
-39.9922	-178.503	0.56958
-39.98658	-176.968	0.637939
-39.9817	-177.883	0.706299
-39.9751	-175.222	0.7746582
-39.9696	-170.917	0.843018
-39.96402	-162.807	0.911377
-39.9579	-159.306	0.979736
-39.9535	-155.209	1.0481
-39.9463	-152.734	1.11646
-39.9413	-144.9045	1.18481
-39.9355	-145.445	1.25317
-39.9302	-142.627	1.32153
-39.9238	-139.918	1.38989
-39.9185	-140.598	1.458252
-39.913	-137.043	1.52661
-39.9071	-130.637	1.59497
-39.901	-125.213	1.66333
-39.89695	-124.072	1.73169
-39.8905	-119.5541	1.80005
-39.88517	-111.543	1.86841
-39.8773	-109.182	1.93677
-39.8733	-108.99	2.005127
-39.8671	-106.502	2.07349
-39.861	-104.844	2.14185
-39.8558	-101.043	2.21021
-39.8499	-97.14109	2.27856
-39.8449	-93.1388	2.34692
-39.8394	-91.713	2.41528
-39.83305	-86.802	2.48364
-39.8278	-76.2226	2.552002
-39.8207	-76.0391	2.62036
-39.8162	-75.5064	2.68872
-39.8093	-70.9115	2.75708
-39.8041	-69.99324	2.82544
-39.79948	-67.15741	2.8938
-39.79401	-64.6179	2.96216
-39.7868	-59.2628	3.03052
-39.78194	-59.8507	3.098877
-39.7759	-54.3989	3.16724
-39.7707	-44.7013	3.2356
-39.7639	-41.595	3.30396
-39.7599	-39.9843	3.37231
-39.7528	-37.8925	3.44067
-39.7469	-34.7161	3.50903
-39.7421	-33.6665	3.57739
-39.7354	-31.5081	3.645752
-39.7309	-26.8327	3.71411
-39.7239	-26.4773	3.78247
-39.7189	-21.6519	3.85083
-39.71286	-16.0762	3.91919
-39.7076	-8.47194	3.98755
-39.7021	-6.17951	4.05591
-39.6958	-4.70216	4.12427
-39.6905	-2.24537	4.192627
-39.6849	1.47431	4.26099
-39.678	3.37624	4.32935
-39.6732	4.264658	4.39771
-39.6686	5.6851	4.46606
-39.6622	10.2116	4.53442
-39.65596	18.6557	4.60278
-39.6508	22.4706	4.67114
-39.6446	26.8066	4.739502
-39.6399	30.0881	4.80786
-39.63335	33.6936	4.87622
-39.6286	37.7039	4.94458
-39.6225	37.4964	5.01294
-39.6166	39.2063	5.0813
-39.6116	37.9771	5.14966
-39.6042	42.6437	5.21802
-39.5988	50.5689	5.286377
-39.5942	52.6983	5.35474
-39.5881	58.3874	5.4231
-39.5822	64.01	5.49146
-39.5761	65.9472	5.55981
-39.5703	70.7628	5.62817
-39.5648	73.5852	5.69653
-39.5596	74.4347	5.76489
-39.5529	71.3059	5.833252
-39.5485	77.8603	5.90161
-39.5425	83.4318	5.96997
-39.5366	85.3494	6.03833
-39.5311	90.0122	6.10669
-39.524	98.3015	6.17505
-39.5202	100.698	6.24341
-39.5146	104.3215	6.31177
-39.5087	106.305	6.380127
-39.503	108.266	6.44849
-39.4979	106.0437	6.51685
-39.4902	109.658	6.58521
-39.48513	114.992	6.65356
-39.4799	118.132	6.72192
-39.47477	120.986	6.79028
-39.4681	128.338	6.85864
-39.4626	133.694	6.927002
-39.458	136.383	6.99536
-39.4513	138.975	7.06372
-39.4445	142.491	7.13208
-39.44022	139.539	7.20044
-39.43541	141.289	7.2688
-39.4282	147.68	7.33716
-39.4233	149.653	7.40552
-39.4178	153.579	7.473877
-39.4114	160.518	7.54224
-39.4057	163.231	7.6106
-39.3988	169.195	7.67896
-39.3949	172.427	7.74731
-39.3892	174.1111	7.81567
-39.3837	173.188	7.88403
-39.37706	175.062	7.95239
-39.3712	180.656	8.020752
-39.3673	181.915	8.08911
-39.3603	185.308	8.15747
-39.3539	189.979	8.22583
-39.3484	194.225	8.29419
-39.3441	200.729	8.36255
-39.3373	206.425	8.43091
-39.33144	206.222	8.49927
-39.3261	205.9109	8.567627
-39.3202	209.032	8.63599
-39.31403	211.2767	8.70435
-39.3096	212.299	8.77271
-39.3038	216.32	8.84106
-39.299	221.483	8.90942
-39.2918	224.252	8.97778
-39.2849	232.385	9.04614
-39.2801	237.2	9.114502
-39.275	238.934	9.18286
-39.2687	238.15	9.25122
-39.2634	241.085	9.31958
-39.2591	245.7849	9.38794
-39.2521	243.994	9.4563
-39.2469	246.953	9.52466
-39.2414	252.489	9.59302
-39.2344	253.519	9.661377
-39.2288	261.169	9.72974
-39.2236	268.986	9.7981
-39.2182	270.5463	9.86646
-39.2124	269.493	9.93481
-39.20723	273.2225	10.0032
-39.2001	276.547	10.0715
-39.19643	274.708	10.1399
-39.1895	277.619	10.2083
-39.1835	282.625	10.2766
-39.1769	283.255	10.345
-39.1721	289.254	10.41333
-39.167	296.7659	10.4817
-39.1609	299.511	10.55
-39.1548	300.711	10.6184
-39.1497	305.069	10.6868
-39.1442	310.354	10.7551
-39.13821	306.591	10.8235
-39.13282	308.104	10.8918
-39.1278	312.004	10.9602
-39.121	314.135	11.0286
-39.1149	319.202	11.0969
-39.1098	325.351	11.1653
-39.10445	327.018	11.2336
-39.0983	329.8822	11.302
-39.0921	333.953	11.3704
-39.0867	339.184	11.4387
-39.0814	337.542	11.50708
-39.0741	339.918	11.5754
-39.0706	340.668	11.6438
-39.0637	342.865	11.7122
-39.0592	345.554	11.7805
-39.05299	351.202	11.8489
-39.0473	354.295	11.9172
-39.0398	359.095	11.9856
-39.0355	363.696	12.054
-39.0285	366.855	12.1223
-39.024	368.617	12.1907
-39.0183	370.192	12.259
-39.0135	368.595	12.3274
-39.0063	371.234	12.3958
-39.002	375.402	12.4641
-38.9962	377.9321	12.5325
-38.9894	379.642	12.60083
-38.9846	384.386	12.6692
-38.9792	390.962	12.7375
-38.9731	394.534	12.8059
-38.9671	394.609	12.8743
-38.9617	398.971	12.9426
-38.9557	398.39	13.011
-38.9495	398.213	13.0793
-38.9447	401.603	13.1477
-38.9387	406.151	13.2161
-38.9332	405.809	13.2844
-38.9268	409.321	13.3528
-38.9221	418.155	13.4211
-38.9164	420.446	13.4895
-38.9108	421.9176	13.5579
-38.9041	425.86	13.6262
-38.8984	424.993	13.69458
-38.8934	424.471	13.7629
-38.8871	428.5827	13.8313
-38.882	431.741	13.8997
-38.8772	430.136	13.968
-38.8714	432.3187	14.0364
-38.8639	441.078	14.1047
-38.8594	444.692	14.1731
-38.8533	444.067	14.2415
-38.8479	449.353	14.3098
-38.8415	452.223	14.3782
-38.8359	451.538	14.4465
-38.8315	452.281	14.5149
-38.8248	454.66	14.5833
-38.8188	455.395	14.6516
-38.8127	455.148	14.72
-38.8078	463.092	14.78833
-38.8021	466.766	14.8567
-38.7969	468.097	14.925
-38.7911	471.114	14.9934
-38.78455	474.2	15.0618
-38.7797	475.548	15.1301
-38.7744	474.414	15.1985
-38.7676	476.836	15.2668
-38.7618	475.0899	15.3352
-38.7582	475.64	15.4036
-38.7515	483.261	15.4719
-38.7456	486.546	15.5403
-38.7398	488.664	15.6086
-38.7339	492.6785	15.677
-38.7285	495.982	15.7454
-38.7214	496.788	15.8137
-38.7167	497.767	15.88208
-38.7107	494.98	15.9504
-38.7052	493.952	16.0188
-38.6996	495.479	16.0872
-38.6943	499.492	16.1555
-38.6883	502.407	16.2239
-38.68166	504.028	16.2922
-38.6758	507.645	16.3606
-38.6712	510.858	16.429
-38.6662	511.741	16.4973
-38.6589	514.035	16.5657
-38.6533	511.325	16.634
-38.6491	508.86	16.7024
-38.6432	510.1337	16.7708
-38.6363	513.088	16.8391
-38.6315	513.509	16.9075
-38.62508	515.865	16.97583
-38.6212	520.725	17.0442
-38.6145	520.524	17.1125
-38.6084	524.557	17.1809
-38.6025	527.041	17.2493
-38.5959	524.3916	17.3176
-38.5916	520.061	17.386
-38.5863	519.411	17.4543
-38.5802	522.177	17.5227
-38.5748	521.12	17.5911
-38.568	522.656	17.6594
-38.5621	527.599	17.7278
-38.5585	525.749	17.7961
-38.5516	528.04	17.8645
-38.5461	533.084	17.9329
-38.5396	531.996	18.0012
-38.5341	524.893	18.06958
-38.5278	524.466	18.1379
-38.5236	525.959	18.2063
-38.5176	523.543	18.2747
-38.5118	522.637	18.343
-38.5057	525.723	18.4114
-38.5004	525.263	18.4797
-38.4952	528.57	18.5481
-38.4894	529.798	18.6165
-38.4833	531.253	18.6848
-38.4769	525.7099	18.7532
-38.4724	524.124	18.8215
-38.46579	525.026	18.8899
-38.4605	522.115	18.9583
[...]
-36.6917	-42.2885	40.1887
-36.689	-43.3517	40.1985
-36.6896	-47.0355	40.2083
-36.6886	-44.5662	40.218
-36.6869	-43.1636	40.2278
-36.6871	-40.6717	40.2375
-36.68642	-40.2616	40.2473
-36.68454	-45.8435	40.25708
-36.6844	-45.6391	40.2668
-36.683	-46.233	40.2766
-36.6822	-44.1386	40.2864
-36.6824	-42.1879	40.2961
-36.682	-41.6502	40.3059
-36.6808	-41.6918	40.3157
-36.6796	-43.24305	40.3254
-36.67831	-46.1967	40.3352
-36.6766	-46.5906	40.345
-36.6769	-43.8257	40.3547
-36.6768	-40.2895	40.3645
-36.6754	-42.1146	40.3743
-36.6747	-42.70715	40.384
-36.6738	-45.7528	40.3938
-36.6731	-46.1093	40.4036
-36.6735	-45.0081	40.41333
-36.672	-44.8203	40.4231
-36.6707	-41.1254	40.4329
-36.6684	-40.5278	40.4426
-36.6685	-44.2828	40.4524
-36.6674	-49.3576	40.4622
-36.66777	-46.1712	40.4719
-36.6667	-43.2001	40.4817
-36.6653	-41.3119	40.4915
-36.66473	-41.1787	40.5012
-36.6638	-44.405	40.511
-36.6624	-44.012	40.5208
-36.66246	-44.963	40.5305
-36.6611	-46.0176	40.5403
-36.6608	-40.7401	40.55
-36.6601	-39.3178	40.5598
-36.6598	-40.80341	40.56958
-36.6576	-46.3996	40.5793
-36.6575	-49.524	40.5891
-36.6559	-46.7626	40.5989
-36.6572	-40.6911	40.6086
-36.6547	-37.1897	40.6184
-36.6541	-41.983	40.6282
-36.6539	-45.44804	40.6379
-36.6531	-45.9204	40.6477
-36.65226	-48.5106	40.6575
-36.6513	-41.7043	40.6672
-36.65	-39.5281	40.677
-36.6495	-38.8694	40.6868
-36.64938	-44.3921	40.6965
-36.6486	-48.2487	40.7063
-36.6472	-47.1527	40.7161
-36.646	-42.7819	40.72583
-36.6449	-41.48703	40.7356
-36.6445	-42.1552	40.7454
-36.64312	-42.28915	40.7551
-36.6421	-44.6196	40.7649
-36.64241	-47.1897	40.7747
-36.6407	-46.114	40.7844
-36.6411	-42.8355	40.7942
-36.6397	-38.9377	40.804
-36.6385	-41.0819	40.8137
-36.6378	-46.4609	40.8235
-36.6373	-46.6837	40.8333
-36.6358	-46.3345	40.843
-36.6371	-41.1411	40.8528
-36.6345	-42.8431	40.8625
-36.6344	-42.7967	40.8723
-36.6327	-43.7115	40.88208
-36.6324	-45.6672	40.8918
-36.6313	-45.44252	40.9016
-36.6315	-47.1883	40.9114
-36.6301	-41.7654	40.9211
-36.6296	-39.69	40.9309
-36.6286	-43.6548	40.9407
-36.6272	-43.8713	40.9504
-36.6259	-46.1919	40.9602
-36.6254	-44.9809	40.97
-36.6249	-44.3546	40.9797
-36.6239	-43.0007	40.9895
-36.62347	-41.2558	40.9993
-36.623	-42.8274	41.009
-36.62138	-44.2687	41.0188
-36.6206	-47.16	41.0286
-36.6213	-45.8214	41.03833
-36.6195	-42.28841	41.0481
-36.6175	-41.0273	41.0579
-36.6178	-41.1852	41.0676
-36.6174	-45.135	41.0774
-36.6165	-45.7832	41.0872
-36.6162	-46.2323	41.0969
-36.61393	-44.5019	41.1067
-36.61396	-40.9883	41.1165
-36.6121	-38.59288	41.1262
-36.6121	-43.673	41.136
-36.6107	-46.58144	41.1458
-36.6104	-49.2182	41.1555
-36.6101	-44.8957	41.1653
-36.609	-39.7066	41.175
-36.60849	-39.186	41.1848
-36.6079	-44.7514	41.19458
-36.6073	-44.3215	41.2043
-36.6052	-47.5153	41.2141
-36.6053	-47.4143	41.2239
-36.6046	-42.2821	41.2336
-36.6032	-39.1713	41.2434
-36.6019	-39.9667	41.2532
-36.6022	-44.5	41.2629
-36.6006	-48.2128	41.2727
-36.5993	-46.33157	41.2825
-36.5985	-43.64872	41.2922
-36.5979	-40.878	41.302
-36.5976	-42.0411	41.3118
-36.5954	-44.8799	41.3215
-36.5963	-46.186	41.3313
-36.5949	-49.65136	41.3411
-36.5954	-43.18058	41.35083
-36.5919	-41.90691	41.3606
-36.5921	-38.3905	41.3704
-36.59219	-41.5971	41.3801
-36.5897	-49.3047	41.3899
-36.591	-45.70549	41.3997
-36.5897	-44.104	41.4094
-36.5889	-41.6368	41.4192
-36.5875	-40.7045	41.429
-36.5856	-41.92123	41.4387
-36.5853	-44.1766	41.4485
-36.5848	-46.1483	41.4583
-36.58395	-45.93502	41.468
-36.5821	-43.4546	41.4778
-36.5827	-40.2078	41.4875
-36.5822	-39.89225	41.4973
-36.5812	-45.17614	41.50708
-36.5801	-45.985	41.5168
-36.5785	-46.1632	41.5266
-36.5774	-43.071	41.5364
-36.5773	-42.5408	41.5461
-36.5771	-41.7691	41.5559