Folder: Stress_Strain_Analysis_Tools/data/processed_data_files/tensile (part 40)

File: 0.254_solid_dimension_typeiv_4545_r(1).dat
MTS793|BTW|ENU|1|2|.|/|:|1|0|0|A

Data Header:			0.254_solid_dimension_typeiv_4545_r0			Time:	20.019	s	4/13/2019 8:32:31 PM
Data Acquisition:	Timed
Station Name:	ft40.cfg
Test File Name:	monotonic_0.2540_typeiv_solid_4545_dimension.tst
Displacement	Force	Running Time
mm	N	s
-40.0343	-193.4171	0.0229492
-40.0322	-190.611	0.0913086
-40.0255	-188.103	0.159668
-40.0193	-188.592	0.228027
-40.0146	-184.299	0.296387
-40.0098	-176.743	0.364746
-40.0034	-171.805	0.433105
-39.9973	-165.956	0.501465
-39.9908	-158.767	0.569824
-39.9865	-158.114	0.638184
-39.9798	-153.982	0.706543
-39.9752	-149.044	0.774902
-39.9693	-147.556	0.843262
-39.9633	-147.917	0.911621
-39.9571	-144.158	0.97998
-39.9523	-136.678	1.04834
-39.94648	-132.868	1.1167
-39.9402	-127.352	1.18506
-39.9359	-120.181	1.253418
-39.9288	-115.429	1.32178
-39.924	-111.065	1.39014
-39.918	-106.648	1.4585
-39.9115	-107.282	1.52686
-39.9053	-107.249	1.59521
-39.9003	-104.092	1.66357
-39.8945	-94.8288	1.73193
-39.8901	-94.3613	1.800293
-39.8839	-87.9783	1.86865
-39.8764	-80.7209	1.93701
-39.872	-77.235	2.00537
-39.8676	-72.4772	2.07373
-39.8612	-67.3903	2.14209
-39.8543	-65.3688	2.21045
-39.8488	-65.6381	2.27881
-39.8438	-59.8292	2.347168
-39.8377	-56.8021	2.41553
-39.8319	-53.5847	2.48389
-39.8252	-48.2582	2.55225
-39.8218	-44.3882	2.62061
-39.8152	-36.1627	2.68896
-39.8097	-30.9809	2.75732
-39.8033	-28.4471	2.82568
-39.7976	-25.6842	2.894043
-39.7929	-26.0273	2.9624
-39.7866	-19.7437	3.03076
-39.78088	-15.613	3.09912
-39.7754	-15.831	3.16748
-39.769	-8.96292	3.23584
-39.7647	-5.33772	3.3042
-39.758	1.60516	3.37256
-39.7525	7.64112	3.440918
-39.7472	12.0987	3.50928
-39.7413	13.796	3.57764
-39.7363	16.7544	3.646
-39.7301	21.4908	3.71436
-39.7236	23.9889	3.78271
-39.7182	26.6829	3.85107
-39.71302	31.6602	3.91943
-39.7064	33.9682	3.987793
-39.70137	40.2838	4.05615
-39.6959	46.6111	4.12451
-39.6902	51.61356	4.19287
-39.685	52.881	4.26123
-39.6777	57.9479	4.32959
-39.6731	64.3331	4.39795
-39.6669	65.9164	4.46631
-39.6621	65.67202	4.534668
-39.6546	70.4465	4.60303
-39.6504	73.7077	4.67139
-39.6451	78.3502	4.73975
-39.638	86.1576	4.80811
-39.633	89.2577	4.87646
-39.6273	91.3061	4.94482
-39.62204	98.56823	5.01318
-39.6165	105.562	5.081543
-39.6101	103.869	5.1499
-39.6054	106.286	5.21826
-39.5985	112.85	5.28662
-39.59359	113.912	5.35498
-39.5884	115.772	5.42334
-39.5812	123.427	5.4917
-39.576	127.823	5.56006
-39.5702	130.105	5.628418
-39.5651	137.726	5.69678
-39.55949	144.272	5.76514
-39.5535	144.891	5.8335
-39.5483	148.025	5.90186
-39.5421	151.751	5.97021
-39.5356	154.343	6.03857
-39.532	155.88	6.10693
-39.52459	163.055	6.175293
-39.5186	165.986	6.24365
-39.514	168.558	6.31201
-39.5071	176.501	6.38037
-39.5026	184.307	6.44873
-39.49659	185.223	6.51709
-39.4907	187.747	6.58545
-39.4843	189.856	6.65381
-39.4789	192.73	6.722168
-39.4736	194.388	6.79053
-39.4671	199.684	6.85889
-39.4623	202.801	6.92725
-39.4559	205.56	6.99561
-39.4504	215.163	7.06396
-39.445	220.648	7.13232
-39.4397	225.161	7.20068
-39.4341	228.37	7.269043
-39.4287	229.094	7.3374
-39.42271	231.921	7.40576
-39.4167	235.682	7.47412
-39.4119	236.668	7.54248
-39.4043	238.852	7.61084
-39.4006	245.839	7.6792
-39.3946	253.467	7.74756
-39.3875	258.991	7.815918
-39.3838	262.724	7.88428
-39.3761	267.697	7.95264
-39.37088	267.971	8.021
-39.3659	271.604	8.08936
-39.3601	273.981	8.15771
-39.3534	275.757	8.22607
-39.3481	276.377	8.29443
-39.3423	282.472	8.362793
-39.338	290.363	8.43115
-39.3304	293.192	8.49951
-39.3254	299.263	8.56787
-39.3187	304.951	8.63623
-39.3144	306.458	8.70459
-39.3087	309.7626	8.77295
-39.3026	312.784	8.84131
-39.2958	312.5	8.909668
-39.2922	312.535	8.97803
-39.2849	317.72	9.04639
-39.2807	325.921	9.11475
-39.2739	326.871	9.18311
-39.2692	335.275	9.25146
-39.2642	342.1958	9.31982
-39.2577	342.866	9.38818
-39.2516	346.535	9.456543
-39.24538	349.583	9.5249
-39.2408	349.254	9.59326
-39.2347	347.644	9.66162
-39.2291	356.06	9.72998
-39.2231	361.368	9.79834
-39.2182	361.633	9.8667
-39.2117	370.534	9.93506
-39.20575	376.252	10.0034
-39.1999	379.59	10.0718
-39.19508	383.229	10.1401
-39.1891	386.705	10.2085
-39.1836	385.548	10.2769
-39.1784	384.698	10.3452
-39.1711	392.475	10.4136
-39.1666	395.074	10.4819
-39.1604	397.673	10.5503
-39.1542	403.695	10.6187
-39.1486	410.546	10.687
-39.143	415.905	10.7554
-39.138	419.316	10.82373
-39.1321	420.894	10.89209
-39.1266	420.2074	10.9604
-39.1206	421.503	11.0288
-39.1148	426.2305	11.0972
-39.1089	428.546	11.1655
-39.103	433.124	11.2339
-39.098	436.357	11.3022
-39.0912	440.71	11.3706
-39.0863	448.1	11.439
-39.08007	452.556	11.5073
-39.0752	454.716	11.5757
-39.0689	454.339	11.644
-39.0636	457.706	11.7124
-39.058	460.756	11.7808
-39.0521	460.811	11.8491
-39.047	465.602	11.91748
-39.0402	468.695	11.98584
-39.0358	471.8826	12.0542
-39.0292	479.18	12.1226
-39.0235	485.1488	12.1909
-39.0186	485.542	12.2593
-39.01313	487.23	12.3276
-39.007	491.875	12.396
-39.0013	493.763	12.4644
-38.9952	494.6055	12.5327
-38.9902	495.666	12.6011
-38.9845	500.2724	12.6694
-38.9784	500.107	12.7378
-38.9731	507.494	12.8062
-38.9673	513.942	12.8745
-38.9611	512.956	12.9429
-38.9565	516.1131	13.01123
-38.949	523.424	13.07959
-38.9433	522.422	13.1479
-38.9376	520.933	13.2163
-38.93306	525.041	13.2847
-38.9257	525.44	13.353
-38.9217	529.184	13.4214
-38.9155	533.473	13.4897
-38.91003	538.381	13.5581
-38.9024	538.146	13.6265
-38.8985	542.802	13.6948
-38.8923	549.745	13.7632
-38.8875	549.523	13.8315
-38.8812	548.207	13.8999
-38.8756	550.538	13.9683
-38.8709	551.167	14.0366
-38.8641	552.389	14.10498
-38.8593	555.807	14.17334
-38.85276	559.3606	14.2417
-38.8476	559.821	14.3101
-38.8416	563.324	14.3784
-38.8352	569.808	14.4468
-38.8313	570.199	14.5151
-38.8251	570.68	14.5835
-38.8191	571.907	14.6519
-38.8132	571.234	14.7202
-38.8063	572.117	14.7886
-38.8018	572.8468	14.8569
-38.7962	573.822	14.9253
-38.79015	575.1	14.9937
-38.7847	580.046	15.062
-38.7782	584.57	15.1304
-38.77224	584.6051	15.19873
-38.7673	585.669	15.26709
-38.7606	585.955	15.3354
-38.7568	586.262	15.4038
-38.7505	584.002	15.4722
-38.7446	583.501	15.5405
-38.7389	584.071	15.6089
-38.73431	582.545	15.6772
-38.7272	587.983	15.7456
-38.722	591.193	15.814
-38.7161	591.22	15.8823
-38.7109	594.085	15.9507
-38.7037	592.6499	16.019
-38.6989	591.216	16.0874
-38.6937	590.604	16.1558
-38.6879	586.375	16.2241
-38.6825	584.376	16.29248
-38.6759	584.521	16.36084
-38.6704	588.525	16.4292
-38.6643	589.173	16.4976
-38.6595	591.521	16.5659
-38.6532	594.181	16.6343
-38.6472	591.601	16.7026
-38.642	591.679	16.771
-38.6363	590.339	16.8394
-38.6306	584.916	16.9077
-38.6253	580.418	16.9761
-38.6193	582.372	17.0444
-38.6141	585.814	17.1128
-38.6071	584.4541	17.1812
-38.6023	587.102	17.2495
-38.597	588.722	17.3179
-38.591	587.1084	17.38623
-38.5844	587.256	17.45459
-38.5792	589.785	17.5229
-38.5737	581.122	17.5913
-38.5673	576.9801	17.6597
-38.5629	577.788	17.728
-38.5559	579.432	17.7964
-38.5511	577.3374	17.8647
-38.5461	579.613	17.9331
-38.5397	582.629	18.0015
-38.534	583.313	18.0698
-38.5273	583.349	18.1382
-38.5239	582.009	18.2065
-38.5162	577.33	18.2749
-38.5105	573.034	18.3433
-38.50507	575.368	18.4116
-38.49984	575.173	18.47998
-38.4944	572.503	18.54834
-38.488	575.6814	18.6167
-38.4815	575.409	18.6851
-38.4763	577.921	18.7534
-38.4712	578.0177	18.8218
-38.46587	578.3634	18.8901
-38.4593	573.348	18.9585
-38.4545	571.681	19.0269
[...]
-36.4776	542.011	42.7476
-36.4759	541.0058	42.7769
-36.4727	538.901	42.8062
-36.4704	538.265	42.8354
-36.4686	539.584	42.8647
-36.465	543.259	42.894
-36.4627	536.457	42.92334
-36.4602	540.293	42.9526
-36.4581	536.9187	42.9819
-36.4557	542.612	43.01123
-36.453	535.492	43.0405
-36.4512	542.044	43.0698
-36.4484	539.718	43.0991
-36.4473	540.986	43.1284
-36.4428	536.813	43.1577
-36.4406	537.819	43.187
-36.439	540.41	43.2163
-36.4365	538.37	43.2456
-36.4342	539.447	43.2749
-36.4312	537.141	43.3042
-36.4289	540.9314	43.3335
-36.4261	534.359	43.3628
-36.4233	540.386	43.39209
-36.4218	535.616	43.4214
-36.4179	541.185	43.4507
-36.41584	536.082	43.47998
-36.4136	541.628	43.5093
-36.41209	533.564	43.5386
-36.4086	537.646	43.5679
-36.4079	533.449	43.5972
-36.4054	537.133	43.6265
-36.4022	535.7453	43.6558
-36.3993	531.002	43.6851
-36.3973	534.238	43.7144
-36.395	531.077	43.7437
-36.3925	533.12	43.7729
-36.3898	522.768	43.8022
-36.38644	522.832	43.8315
-36.3825	-25.6357	43.86084
-36.3809	-40.1859	43.8901
-36.3787	-50.3926	43.9194
-36.3762	-37.9122	43.94873
-36.3745	-45.4946	43.978
-36.3723	-38.9813	44.0073
-36.3697	-46.28825	44.0366
-36.368	-39.243	44.0659
-36.3649	-44.763	44.0952
-36.3631	-43.2192	44.1245
-36.3605	-43.0399	44.1538
-36.3579	-41.6111	44.1831
-36.3562	-39.6911	44.2124
-36.3529	-42.6952	44.2417
-36.34927	-38.7821	44.271
-36.34761	-46.2285	44.3003
-36.3454	-39.8065	44.32959
-36.3428	-43.4981	44.3589
-36.3405	-36.4744	44.3882
-36.3383	-46.9917	44.41748
-36.3355	-39.679	44.4468
-36.33419	-45.424	44.4761
-36.3306	-37.9684	44.5054
-36.3281	-45.1245	44.5347
-36.3274	-38.6019	44.564
-36.3246	-42.16087	44.5933
-36.3209	-42.2877	44.6226
-36.3186	-46.6554	44.6519
-36.3162	-41.9195	44.6812
-36.3125	-39.3362	44.7104
-36.3112	-43.9668	44.7397
-36.3082	-40.5941	44.769
-36.3063	-45.3834	44.79834
-36.3045	-39.1863	44.8276
-36.3017	-46.4459	44.8569
-36.2998	-40.478	44.88623
-36.296	-43.5423	44.9155
-36.294	-39.779	44.9448
-36.2925	-45.5071	44.9741
-36.2898	-41.9985	45.0034
-36.2869	-43.4939	45.0327
-36.2848	-42.3218	45.062
-36.282	-42.3752	45.0913
-36.279	-40.728	45.1206
-36.2771	-41.0794	45.1499
-36.2757	-45.1423	45.1792
-36.2722	-40.8331	45.2085
-36.2694	-43.1705	45.2378
-36.2667	-39.2757	45.26709
-36.266	-44.82478	45.2964
-36.2624	-38.9501	45.3257
-36.2587	-44.0596	45.35498
-36.2569	-41.5609	45.3843
-36.2543	-45.1467	45.4136
-36.253	-37.7062	45.4429
-36.2512	-42.9244	45.4722
-36.2475	-43.7771	45.5015
-36.24601	-42.7701	45.5308
-36.2444	-42.6263	45.5601
-36.2414	-41.8299	45.5894
-36.2382	-45.2756	45.6187
-36.2361	-38.899	45.6479
-36.23325	-44.0873	45.6772
-36.2302	-39.6314	45.7065
-36.2285	-47.761	45.73584
-36.2262	-37.7869	45.7651
-36.2246	-45.918	45.7944
-36.2213	-38.5487	45.82373
-36.2184	-46.0112	45.853
-36.217	-37.9214	45.8823
-36.214	-46.685	45.9116
-36.2107	-40.5559	45.9409
-36.2097	-44.8598	45.9702
-36.2071	-40.9424	45.9995
-36.2043	-41.9134	46.0288
-36.2004	-42.4855	46.0581
-36.1993	-39.8528	46.0874
-36.1974	-46.51646	46.1167
-36.195	-39.7965	46.146
-36.1923	-44.57893	46.1753
-36.18866	-36.09409	46.20459
-36.1864	-47.3168	46.2339
-36.1845	-39.4644	46.2632
-36.1821	-45.9346	46.29248
-36.1795	-36.3458	46.3218
-36.17738	-47.2985	46.3511
-36.174	-38.0621	46.3804
-36.1728	-43.7694	46.4097
-36.169	-41.3909	46.439
-36.167	-45.5115	46.4683
-36.1647	-41.6794	46.4976
-36.1638	-40.80024	46.5269
-36.15971	-43.9123	46.5562
-36.1586	-42.6287	46.5854
-36.1552	-43.383	46.6147
-36.1524	-43.421	46.644
-36.1513	-47.4585	46.67334
-36.1476	-42.5965	46.7026
-36.1461	-43.4683	46.7319
-36.1431	-40.8477	46.76123
-36.1403	-46.0568	46.7905
-36.1375	-41.459	46.8198
-36.1356	-44.5631	46.8491
-36.133	-43.2536	46.8784

File: 0.254_solid_dimension_typeiv_4545_r(2).dat
MTS793|BTW|ENU|1|2|.|/|:|1|0|0|A

Data Header:			0.254_solid_dimension_typeiv_4545_r0			Time:	20.0188	s	4/13/2019 8:35:16 PM
Data Acquisition:	Timed
Station Name:	ft40.cfg
Test File Name:	monotonic_0.2540_typeiv_solid_4545_dimension.tst
Displacement	Force	Running Time
mm	N	s
-40.0351	-189.997	0.0224609
-40.0325	-189.6413	0.0908203
-40.0265	-185.679	0.15918
-40.0212	-178.463	0.227539
-40.0152	-175.855	0.295898
-40.0098	-172.95	0.364258
-40.0037	-170.403	0.432617
-39.9977	-165.718	0.500977
-39.9931	-167.881	0.569336
-39.9874	-164.355	0.637695
-39.9815	-154.769	0.706055
-39.9763	-151.3	0.774414
-39.9708	-147.496	0.842773
-39.9651	-141.1463	0.911133
-39.95821	-136.324	0.979492
-39.9529	-132.6205	1.04785
-39.9474	-129.132	1.11621
-39.9412	-126.34	1.18457
-39.93438	-126.08	1.25293
-39.9309	-125.45	1.32129
-39.9252	-116.863	1.38965
-39.9187	-112.5155	1.45801
-39.91288	-108.806	1.52637
-39.9075	-101.723	1.59473
-39.9015	-96.4804	1.66309
-39.89719	-91.6658	1.73145
-39.891	-88.1473	1.7998
-39.8847	-86.38343	1.86816
-39.8781	-85.5359	1.93652
-39.8732	-83.2996	2.00488
-39.868	-77.0714	2.07324
-39.8615	-74.179	2.1416
-39.857	-68.3469	2.20996
-39.8498	-63.2176	2.27832
-39.8441	-56.8763	2.34668
-39.83897	-51.5433	2.41504
-39.83437	-48.112	2.4834
-39.8275	-45.6328	2.55176
-39.8215	-43.1948	2.62012
-39.81609	-40.3488	2.68848
-39.8105	-37.9853	2.75684
-39.8052	-35.49622	2.8252
-39.7997	-30.2573	2.89355
-39.7934	-25.2619	2.96191
-39.78796	-20.3377	3.03027
-39.7825	-12.222	3.09863
-39.7767	-7.58649	3.16699
-39.7702	-6.33528	3.23535
-39.765	-5.2859	3.30371
-39.7603	-0.710635	3.37207
-39.7539	1.769461	3.44043
-39.7471	2.31855	3.50879
-39.7423	8.7546	3.57715
-39.7369	15.0898	3.64551
-39.7309	18.3233	3.71387
-39.7245	27.2426	3.78223
-39.7197	32.6953	3.85059
-39.7137	32.4278	3.91895
-39.7092	35.2537	3.9873
-39.7025	41.7355	4.05566
-39.6966	42.4389	4.12402
-39.6905	44.41283	4.19238
-39.6847	49.2215	4.26074
-39.6793	52.69582	4.3291
-39.6743	59.0329	4.39746
-39.6674	67.0528	4.46582
-39.6633	72.2116	4.53418
-39.6584	73.4472	4.60254
-39.6516	77.385	4.6709
-39.6454	84.2913	4.73926
-39.6394	83.3346	4.80762
-39.63361	83.17054	4.87598
-39.6287	90.6141	4.94434
-39.622	93.6436	5.0127
-39.6165	98.4037	5.08105
-39.612	103.569	5.14941
-39.6056	112.698	5.21777
-39.5999	112.195	5.28613
-39.594	115.8	5.35449
-39.5888	123.978	5.42285
-39.5826	125.273	5.49121
-39.5776	123.824	5.55957
-39.572	128.067	5.62793
-39.5658	132.87	5.69629
-39.5609	137.092	5.76465
-39.5538	142.331	5.83301
-39.5488	149.32	5.90137
-39.5435	151.072	5.96973
-39.5377	156.896	6.03809
-39.5307	163.932	6.10645
-39.52578	165.106	6.1748
-39.5209	166.708	6.24316
-39.5149	168.75	6.31152
-39.5086	171.788	6.37988
-39.5026	175.084	6.44824
-39.4966	178.539	6.5166
-39.4919	185.431	6.58496
-39.486	188.323	6.65332
-39.48074	195.929	6.72168
-39.4752	202.567	6.79004
-39.4697	205.569	6.8584
-39.4628	206.137	6.92676
-39.4576	208.743	6.99512
-39.4514	210.379	7.06348
-39.4461	214.974	7.13184
-39.4407	217.37	7.2002
-39.43457	220.788	7.26855
-39.4298	226.183	7.33691
-39.4232	234.756	7.40527
-39.4181	236.535	7.47363
-39.4124	242.821	7.54199
-39.4062	247.295	7.61035
-39.4008	248.37	7.67871
-39.3944	249.5041	7.74707
-39.3897	252.903	7.81543
-39.3845	256.539	7.88379
-39.3783	257.985	7.95215
-39.3724	261.191	8.02051
-39.3653	272.171	8.08887
-39.362	275.804	8.15723
-39.3558	279.22	8.22559
-39.3493	284.775	8.29395
-39.34478	287.704	8.3623
-39.3378	288.819	8.43066
-39.3329	292.742	8.49902
-39.32753	295.424	8.56738
-39.3218	296.029	8.63574
-39.31506	299.252	8.7041
-39.3098	310.053	8.77246
-39.3042	312.334	8.84082
-39.2977	315.329	8.90918
-39.2943	322.609	8.97754
-39.2873	324.398	9.0459
-39.2811	326.36	9.11426
-39.2744	329.935	9.18262
-39.2702	331.752	9.25098
-39.2649	331.441	9.31934
-39.2572	334.52	9.3877
-39.2522	344.317	9.45605
-39.2465	348.5752	9.52441
-39.2407	350.2308	9.59277
-39.2333	356.289	9.66113
-39.23	361.642	9.72949
-39.2239	364.6998	9.79785
-39.219	367.592	9.86621
-39.2124	368.1825	9.93457
-39.2067	369.251	10.00293
-39.2018	372.258	10.0713
-39.1954	379.139	10.1396
-39.18959	380.578	10.208
-39.1848	388.089	10.2764
-39.179	393.395	10.3447
-39.17292	397.2543	10.4131
-39.1677	401.53	10.4814
-39.1613	403.386	10.5498
-39.1563	405.051	10.6182
-39.1501	403.888	10.6865
-39.1446	407.658	10.7549
-39.139	411.975	10.8232
-39.1327	415.136	10.8916
-39.12767	419.422	10.96
-39.122	423.828	11.02832
-39.1175	428.861	11.09668
-39.1098	436.472	11.165
-39.1054	439.158	11.2334
-39.09885	437.848	11.3018
-39.093	440.508	11.3701
-39.0879	443.417	11.4385
-39.0821	444.97	11.5068
-39.0763	446.064	11.5752
-39.071	453.575	11.6436
-39.0647	456.743	11.7119
-39.0596	462.882	11.7803
-39.0527	469.715	11.8486
-39.0479	471.231	11.917
-39.0423	471.1261	11.9854
-39.0372	473.0773	12.0537
-39.0308	477.297	12.12207
-39.02343	478.194	12.19043
-39.0193	478.655	12.2588
-39.0135	484.066	12.3271
-39.008	486.971	12.3955
-39.0018	492.368	12.4639
-38.9971	498.057	12.5322
-38.9914	503.839	12.6006
-38.9859	502.985	12.6689
-38.9804	505.159	12.7373
-38.9735	511.008	12.8057
-38.9679	509.499	12.874
-38.9629	506.683	12.9424
-38.9566	513.334	13.0107
-38.9503	515.931	13.0791
-38.9455	521.1806	13.1475
-38.9394	526.197	13.21582
-38.9339	531.912	13.28418
-38.9281	530.173	13.3525
-38.9223	532.552	13.4209
-38.9163	538.989	13.4893
-38.91087	536.651	13.5576
-38.9049	536.318	13.626
-38.89904	540.174	13.6943
-38.89426	541.647	13.7627
-38.8887	545.69	13.8311
-38.8815	550.784	13.8994
-38.8771	554.172	13.9678
-38.87019	557.07	14.0361
-38.8666	558.774	14.1045
-38.8596	563.157	14.1729
-38.8538	561.723	14.2412
-38.84898	560.903	14.30957
-38.84322	561.745	14.37793
-38.8373	562.764	14.4463
-38.8314	567.219	14.5146
-38.8239	570.772	14.583
-38.8203	572.146	14.6514
-38.8128	573.973	14.7197
-38.8084	578.647	14.7881
-38.8036	580.828	14.8564
-38.7971	581.285	14.9248
-38.7905	580.869	14.9932
-38.7857	578.375	15.0615
-38.7798	578.9671	15.1299
-38.7748	582.347	15.1982
-38.76939	583.482	15.2666
-38.76302	583.446	15.335
-38.7583	587.156	15.40332
-38.7501	591.86	15.47168
-38.7462	590.894	15.54
-38.7401	590.72	15.6084
-38.7351	592.314	15.6768
-38.7277	589.8736	15.7451
-38.7233	587.153	15.8135
-38.7179	590.192	15.8818
-38.7115	590.366	15.9502
-38.7057	589.3089	16.0186
-38.70013	590.774	16.0869
-38.6947	596.537	16.1553
-38.6889	595.233	16.2236
-38.68309	594.258	16.292
-38.6772	596.61	16.3604
-38.6716	592.9541	16.4287
-38.6665	590.8	16.49707
-38.6605	589.794	16.56543
-38.6539	589.462	16.6338
-38.6487	586.718	16.7021
-38.64315	587.744	16.7705
-38.637	594.093	16.8389
-38.6325	592.276	16.9072
-38.6265	591.815	16.9756
-38.6209	594.0943	17.0439
-38.6146	592.8	17.1123
-38.6079	590.233	17.1807
-38.604	587.975	17.249
-38.5984	587.426	17.3174
-38.5921	582.411	17.3857
-38.58654	582.59	17.4541
-38.5806	586.275	17.5225
-38.5747	586.883	17.59082
-38.5703	587.241	17.65918
-38.5644	588.677	17.7275
-38.55727	587.927	17.7959
-38.5519	586.357	17.8643
-38.5473	584.297	17.9326
-38.5407	581.8949	18.001
-38.5343	578.342	18.0693
-38.5291	577.897	18.1377
-38.5232	581.909	18.2061
-38.5173	579.6424	18.2744
-38.512	582.509	18.3428
-38.5065	583.0921	18.4111
-38.501	582.157	18.4795
-38.4952	583.433	18.5479
-38.4898	580.568	18.6162
-38.4844	577.621	18.68457
-38.4778	574.215	18.75293
-38.4712	572.76	18.8213
-38.4662	576.704	18.8896
-38.4604	575.164	18.958
-38.4555	577.019	19.0264
-38.45	579.24	19.0947
[...]
-36.0325	544.779	48.1084
-36.0265	546.426	48.167
-36.02206	544.711	48.2256
-36.0181	547.248	48.28418
-36.0126	541.319	48.3428
-36.008	543.8606	48.4014
-36.0014	540.958	48.46
-35.9984	539.7973	48.5186
-35.9928	538.718	48.5771
-35.9882	537.925	48.6357
-35.9827	539.647	48.6943
-35.9781	538.478	48.75293
-35.97324	540.9325	48.8115
-35.9686	537.781	48.8701
-35.9629	544.731	48.9287
-35.9584	542.328	48.9873
-35.9537	544.636	49.0459
-35.9485	542.563	49.1045
-35.944	544.971	49.1631
-35.9392	543.021	49.22168
-35.934	543.602	49.2803
-35.93	543.447	49.3389
-35.9252	540.515	49.3975
-35.9186	541.08	49.4561
-35.91497	539.015	49.5146
-35.9092	539.775	49.5732
-35.9056	540.489	49.6318
-35.901	541.989	49.69043
-35.8959	539.058	49.749
-35.89035	542.633	49.8076
-35.88493	543.195	49.8662
-35.88015	543.53	49.9248
-35.8763	545.933	49.9834
-35.8709	544.308	50.042
-35.8666	545.237	50.1006
-35.8614	542.573	50.15918
-35.8562	544.384	50.2178
-35.8517	538.29	50.2764
-35.8453	539.561	50.335
-35.8413	537.076	50.3936
-35.8366	536.197	50.4521
-35.8316	537.595	50.5107
-35.82766	537.842	50.5693
-35.8227	537.264	50.62793
-35.8161	536.112	50.6865
-35.8127	541.409	50.7451
-35.8072	538.9	50.8037
-35.8032	542.852	50.8623
-35.7983	542.2851	50.9209
-35.7926	543.375	50.9795
-35.7877	540.034	51.0381
-35.7829	543.386	51.09668
-35.7784	540.969	51.1553
-35.7738	539.486	51.2139
-35.7689	540.214	51.2725
-35.763	537.24	51.3311
-35.7587	537.5899	51.3896
-35.7536	537.4212	51.4482
-35.7476	536.708	51.5068
-35.7437	536.466	51.56543
-35.739	538.82	51.624
-35.7332	538.782	51.6826
-35.7295	539.865	51.7412
-35.7244	543.033	51.7998
-35.7202	541.73	51.8584
-35.715	543.229	51.917
-35.7097	541.091	51.9756
-35.7048	542.4455	52.03418
-35.7004	537.296	52.0928
-35.69458	539.3476	52.1514
-35.6904	536.546	52.21
-35.6849	534.379	52.2686
-35.6801	534.08	52.3271
-35.67503	533.296	52.3857
-35.6708	532.718	52.4443
-35.6651	533.241	52.50293
-35.6613	535.116	52.5615
-35.6557	532.194	52.6201
-35.6509	537.222	52.6787
-35.646	536.17	52.7373
-35.641	538.177	52.7959
-35.6363	535.985	52.8545
-35.6323	536.678	52.9131
-35.6265	535.464	52.97168
-35.6213	534.99	53.0303
-35.6174	532.44	53.0889
-35.6115	529.513	53.1475
-35.607	529.5791	53.2061
-35.6026	527.3161	53.2646
-35.5968	527.001	53.3232
-35.5924	524.703	53.3818
-35.5888	526.513	53.44043
-35.5823	523.912	53.499
-35.5771	521.829	53.5576
-35.5707	-39.7704	53.6162
-35.5664	-39.55917	53.6748
-35.5612	-38.1749	53.7334
-35.558	-39.8676	53.792
-35.5525	-36.7972	53.8506
-35.5486	-40.2251	53.90918
-35.5429	-39.1609	53.9678
-35.5381	-41.67804	54.0264
-35.5337	-42.3895	54.085
-35.5288	-43.9786	54.1436
-35.5236	-45.1566	54.2021
-35.5189	-44.7661	54.2607
-35.5142	-43.7804	54.3193
-35.5087	-44.2048	54.37793
-35.5042	-46.1307	54.4365
-35.4993	-40.4425	54.4951
-35.4942	-43.8806	54.5537
-35.4894	-39.469	54.6123
-35.4848	-40.4228	54.6709
-35.47974	-38.4353	54.7295
-35.4757	-41.8173	54.7881
-35.4698	-39.6103	54.84668
-35.4657	-40.1386	54.9053
-35.4601	-41.8998	54.9639
-35.4553	-41.6343	55.0225
-35.4513	-43.6201	55.0811
-35.4462	-44.5025	55.1396
-35.4408	-43.7233	55.1982
-35.4351	-43.0037	55.2568
-35.43137	-44.5223	55.31543
-35.4258	-40.7438	55.374
-35.4201	-41.1036	55.4326
-35.4165	-42.66011	55.4912
-35.4114	-37.9931	55.5498
-35.4072	-38.4484	55.6084
-35.4023	-37.7432	55.667
-35.3968	-39.1743	55.7256
-35.3923	-37.3532	55.78418
-35.38802	-42.61932	55.8428
-35.38229	-42.9339	55.9014
-35.3784	-42.4044	55.96
-35.3732	-44.3147	56.0186
-35.367	-45.3298	56.0771
-35.3616	-46.13649	56.1357
-35.35865	-45.5724	56.1943
-35.353	-46.9628	56.25293
-35.3487	-42.4453	56.3115
-35.3431	-44.4296	56.3701
-35.3379	-41.4087	56.4287
-35.3377	-44.387	56.4385