Folder: Stress_Strain_Analysis_Tools/data/processed_data_files/tensile (part 24)

File: 0.254_hd_uprint_typeiv_090_r(9).dat
MTS793|BTW|ENU|1|2|.|/|:|1|0|0|A

Data Header:			0.254_hd_uprint_typeiv_090_r0			Time:	20.0305	s	4/13/2019 11:19:04 PM
Data Acquisition:	Timed
Station Name:	ft40.cfg
Test File Name:	monotonic_0.2540_typeiv_solid_4545_uprint.tst
Displacement	Force	Running Time
mm	N	s
-40.0423	-110.851	0.0354004
-40.04	-108.94	0.10376
-40.0349	-103.26	0.172119
-40.0297	-98.0952	0.240479
-40.0224	-95.6716	0.308838
-40.0182	-96.7846	0.377197
-40.01244	-94.0214	0.445557
-40.0071	-90.7724	0.513916
-39.9999	-89.5497	0.582275
-39.9948	-85.3555	0.650635
-39.9899	-82.0375	0.718994
-39.9839	-77.0441	0.787354
-39.97879	-72.0488	0.855713
-39.9729	-65.497	0.924072
-39.9671	-63.5987	0.992432
-39.9626	-63.95837	1.060791
-39.9552	-60.3023	1.12915
-39.9497	-55.52	1.19751
-39.9446	-57.5945	1.26587
-39.9381	-52.9325	1.33423
-39.932	-48.5451	1.40259
-39.9268	-46.937	1.47095
-39.9222	-39.7631	1.53931
-39.9153	-31.7231	1.607666
-39.9096	-34.2637	1.67603
-39.9058	-29.8954	1.74438
-39.8991	-24.9646	1.81274
-39.8923	-21.7599	1.8811
-39.8864	-23.4166	1.94946
-39.8821	-19.1048	2.01782
-39.8749	-16.3152	2.08618
-39.8691	-14.6248	2.154541
-39.8647	-7.92987	2.2229
-39.8587	-3.91692	2.29126
-39.855	-0.768509	2.35962
-39.8482	1.65301	2.42798
-39.84201	8.13388	2.49634
-39.8354	10.1095	2.5647
-39.8306	9.77915	2.63306
-39.8245	13.7997	2.701416
-39.8188	15.917	2.76978
-39.8121	17.7687	2.83813
-39.8073	21.721	2.90649
-39.8017	28.9468	2.97485
-39.7948	29.5887	3.04321
-39.7898	34.2868	3.11157
-39.785	43.3748	3.17993
-39.7783	43.5131	3.248291
-39.7727	43.2119	3.31665
-39.7677	47.8101	3.38501
-39.7617	48.6574	3.45337
-39.7559	50.6957	3.52173
-39.7499	55.1586	3.59009
-39.7447	59.85408	3.65845
-39.7385	58.9598	3.72681
-39.7338	65.8459	3.795166
-39.7277	75.8739	3.86353
-39.7226	76.6947	3.93188
-39.7159	77.86042	4.00024
-39.7112	82.3307	4.0686
-39.706	81.7059	4.13696
-39.6989	82.08728	4.20532
-39.6951	87.1105	4.27368
-39.687	89.7175	4.342041
-39.68121	90.2916	4.4104
-39.6768	97.9677	4.47876
-39.6704	105.774	4.54712
-39.6654	108.658	4.61548
-39.6604	109.5891	4.68384
-39.6537	114.378	4.7522
-39.6477	114.384	4.82056
-39.6424	114.286	4.888916
-39.6365	118.285	4.95728
-39.63105	119.86	5.02563
-39.6247	122.485	5.09399
-39.6187	128.3815	5.16235
-39.6143	135.6151	5.23071
-39.6073	137.94	5.29907
-39.6022	142.308	5.36743
-39.5964	145.483	5.435791
-39.5912	147.351	5.50415
-39.5851	148.639	5.57251
-39.5805	149.996	5.64087
-39.5741	148.883	5.70923
-39.5679	150.104	5.77759
-39.5618	158.7726	5.84595
-39.5568	165.277	5.91431
-39.5501	169.411	5.982666
-39.5448	173.887	6.05103
-39.5397	177.384	6.11938
-39.5339	178.592	6.18774
-39.5276	181.4397	6.2561
-39.5232	181.099	6.32446
-39.5167	179.928	6.39282
-39.5106	183.5256	6.46118
-39.5059	189.5153	6.529541
-39.5005	194.05	6.5979
-39.4939	199.695	6.66626
-39.489	203.603	6.73462
-39.4831	205.939	6.80298
-39.4774	210.518	6.87134
-39.4715	213.422	6.9397
-39.4649	212.615	7.00806
-39.46014	210.605	7.076416
-39.4544	215.038	7.14478
-39.4491	219.239	7.21313
-39.4431	221.2117	7.28149
-39.4385	227.8492	7.34985
-39.4322	232.198	7.41821
-39.4267	234.878	7.48657
-39.4204	240.2332	7.55493
-39.4155	243.614	7.623291
-39.4092	242.305	7.69165
-39.4026	241.8517	7.76001
-39.3962	246.3291	7.82837
-39.39151	248.182	7.89673
-39.38591	248.238	7.96509
-39.3804	254.791	8.03345
-39.37376	260.387	8.10181
-39.3695	262.946	8.170166
-39.3635	269.435	8.23853
-39.3576	274.467	8.30688
-39.3529	272.675	8.37524
-39.3468	271.485	8.4436
-39.3408	275.938	8.51196
-39.3351	275.942	8.58032
-39.32996	277.946	8.64868
-39.3241	282.76	8.717041
-39.3178	287.39	8.7854
-39.3108	289.867	8.85376
-39.3062	296.3782	8.92212
-39.2999	300.698	8.99048
-39.2947	297.749	9.05884
-39.2891	300.337	9.1272
-39.283	305.265	9.19556
-39.2776	305.979	9.263916
-39.2713	306.287	9.33228
-39.2668	310.508	9.40063
-39.2609	314.209	9.46899
-39.2548	316.572	9.53735
-39.2486	321.996	9.60571
-39.2439	326.493	9.67407
-39.238	325.939	9.74243
-39.2322	328.313	9.810791
-39.2266	334.166	9.87915
-39.2209	333.703	9.94751
-39.2151	331.411	10.0159
-39.2081	336.384	10.0842
-39.20414	338.5491	10.1526
-39.1978	343.361	10.2209
-39.19228	346.251	10.2893
-39.1867	352.748	10.3577
-39.1808	352.0726	10.426
-39.1749	353.975	10.4944
-39.1692	360.496	10.5627
-39.1637	357.994	10.6311
-39.15855	357.331	10.6995
-39.1513	361.125	10.7678
-39.1463	360.408	10.8362
-39.1418	364.606	10.9045
-39.1354	368.296	10.9729
-39.1299	371.136	11.04126
-39.1233	373.7392	11.1096
-39.1184	378.753	11.178
-39.1123	384.008	11.2463
-39.10759	383.155	11.3147
-39.1009	382.549	11.3831
-39.0959	384.721	11.4514
-39.09024	383.811	11.5198
-39.0838	385.471	11.5881
-39.0782	388.702	11.6565
-39.0735	391.013	11.7249
-39.0664	394.994	11.7932
-39.0616	400.202	11.8616
-39.0555	403.429	11.9299
-39.0506	403.853	11.9983
-39.0442	405.159	12.06665
-39.03817	402.937	12.13501
-39.0328	404.537	12.2034
-39.02647	406.901	12.2717
-39.021	407.331	12.3401
-39.0155	406.745	12.4084
-39.0104	410.314	12.4768
-39.0045	416.482	12.5452
-38.9988	419.573	12.6135
-38.9923	421.326	12.6819
-38.9887	423.469	12.7502
-38.98193	419.592	12.8186
-38.9755	420.577	12.887
-38.9695	421.461	12.9553
-38.964	418.577	13.0237
-38.9582	418.473	13.092
-38.9528	421.95	13.1604
-38.9471	428.076	13.22876
-38.9409	430.57	13.2971
-38.9367	432.272	13.3655
-38.9306	433.661	13.4338
-38.9254	430.305	13.5022
-38.9194	432.024	13.5706
-38.9134	430.431	13.6389
-38.90699	427.07	13.7073
-38.9016	424.775	13.7756
-38.8964	428.0943	13.844
-38.89	432.788	13.9124
-38.8845	433.562	13.9807
-38.8789	436.83	14.0491
-38.87365	439.461	14.1174
-38.8687	433.769	14.1858
-38.8616	435.806	14.25415
-38.85603	436.125	14.32251
-38.8513	429.191	14.3909
-38.8447	424.6	14.4592
-38.8391	428.898	14.5276
-38.83437	432.96	14.5959
-38.8285	431.3577	14.6643
-38.8216	433.983	14.7327
-38.81543	437.943	14.801
-38.8109	434.808	14.8694
-38.8047	433.977	14.9377
-38.7994	435.158	15.0061
-38.7934	429.025	15.0745
-38.7894	423.7	15.1428
-38.7816	426.963	15.2112
-38.7768	428.584	15.2795
-38.7692	427.086	15.3479
-38.765	430.1033	15.41626
-38.7611	432.697	15.4846
-38.7539	431.7417	15.553
-38.7486	431.6297	15.6213
-38.7428	430.7941	15.6897
-38.7372	423.834	15.7581
-38.7306	421.416	15.8264
-38.7257	423.071	15.8948
-38.7198	424.009	15.9631
-38.7146	420.471	16.0315
-38.708	424.66	16.0999
-38.7032	427.234	16.1682
-38.6969	428.328	16.2366
-38.6919	426.905	16.3049
-38.6855	427.046	16.3733
-38.6793	422.448	16.44165
-38.6735	417.546	16.51001
-38.6672	421.783	16.5784
-38.6627	419.8653	16.6467
-38.6566	418.39	16.7151
-38.651	419.687	16.7834
-38.6454	421.2767	16.8518
-38.6396	423.498	16.9202
-38.63414	425.111	16.9885
-38.6292	424.55	17.0569
-38.6214	421.675	17.1252
-38.6174	416.887	17.1936
-38.6118	418.2066	17.262
-38.6054	417.261	17.3303
-38.6003	416.598	17.3987
-38.5941	415.113	17.467
-38.5878	414.283	17.5354
-38.5825	419.48	17.60376
-38.57655	420.51	17.6721
-38.5715	420.816	17.7405
-38.5665	417.0817	17.8088
-38.56	416.549	17.8772
-38.554	416.579	17.9456
-38.5492	413.783	18.0139
-38.5426	413.845	18.0823
-38.5367	412.084	18.1506
-38.5322	412.385	18.219
-38.5261	415.949	18.2874
-38.51963	417.876	18.3557
-38.5148	415.435	18.4241
-38.5087	415.783	18.4924
-38.5025	417.4303	18.5608
-38.4979	416.347	18.62915
-38.4918	416.006	18.69751
-38.4862	412.931	18.7659
-38.4811	410.646	18.8342
-38.4746	411.84	18.9026
-38.4692	412.956	18.9709
-38.4638	415.142	19.0393
[...]
-37.7618	399.037	27.4573
-37.757	407.144	27.5061
-37.75322	412.018	27.5549
-37.7495	405.974	27.60376
-37.7462	401.7829	27.6526
-37.7412	403.372	27.7014
-37.7381	407.82	27.7502
-37.7336	407.1788	27.7991
-37.7285	401.8	27.8479
-37.7248	398.71	27.8967
-37.7213	402.704	27.9456
-37.7168	409.134	27.9944
-37.7129	405.101	28.0432
-37.7081	397.296	28.092
-37.7054	400.087	28.1409
-37.7009	407.404	28.1897
-37.697	410.017	28.2385
-37.69315	404.508	28.2874
-37.6877	402.197	28.3362
-37.6843	402.156	28.38501
-37.6804	406.886	28.4338
-37.6763	406.183	28.4827
-37.67178	400.837	28.5315
-37.6674	397.68	28.5803
-37.664	404.676	28.62915
-37.6601	406.659	28.678
-37.65588	402.896	28.7268
-37.6517	396.616	28.7756
-37.6483	399.996	28.8245
-37.6444	405.489	28.8733
-37.6394	406.643	28.9221
-37.6363	403.252	28.9709
-37.6309	402.346	29.0198
-37.6271	406.69	29.0686
-37.6231	407.201	29.1174
-37.61932	405.987	29.16626
-37.6158	397.6691	29.2151
-37.6109	398.759	29.2639
-37.6077	404.539	29.3127
-37.6033	405.422	29.3616
-37.5982	401.577	29.4104
-37.5948	396.607	29.4592
-37.5908	399.0867	29.5081
-37.5873	402.662	29.5569
-37.5824	403.238	29.6057
-37.578	401.335	29.6545
-37.575	401.236	29.7034
-37.5711	404.494	29.7522
-37.5667	404.587	29.801
-37.5636	403.052	29.8499
-37.5576	399.689	29.8987
-37.5542	401.413	29.94751
-37.5494	404.326	29.9963
-37.5465	403.162	30.0452
-37.5418	399.189	30.094
-37.5386	396.2	30.1428
-37.53397	400.903	30.19165
-37.5304	402.071	30.2405
-37.5266	401.086	30.2893
-37.522	398.77	30.3381
-37.517	400.375	30.387
-37.5137	405.187	30.4358
-37.5088	403.736	30.4846
-37.5043	399.81	30.5334
-37.5015	398.565	30.5823
-37.4974	402.8374	30.6311
-37.4927	403.298	30.6799
-37.4885	401.217	30.72876
-37.4854	397.209	30.7776
-37.48	396.744	30.8264
-37.4764	398.415	30.8752
-37.4725	397.951	30.9241
-37.4692	396.928	30.9729
-37.4651	397.657	31.0217
-37.4592	402.082	31.0706
-37.4569	403.453	31.1194
-37.4524	400.375	31.1682
-37.448	397.353	31.217
-37.4442	397.1246	31.2659
-37.44022	400.687	31.3147
-37.4358	401.077	31.3635
-37.4324	397.185	31.4124
-37.4282	394.687	31.4612
-37.4256	396.274	31.51001
-37.4194	396.413	31.5588
-37.415	394.003	31.6077
-37.4124	393.808	31.6565
-37.4083	395.014	31.7053
-37.4035	399.209	31.75415
-37.3997	400.641	31.803
-37.396	395.594	31.8518
-37.39106	392.175	31.9006
-37.3882	395.5444	31.9495
-37.3834	397.535	31.9983
-37.377	-35.2458	32.0471
-37.3752	-44.8387	32.0959
-37.3705	-42.6436	32.1448
-37.3674	-41.9164	32.1936
-37.3634	-41.9646	32.2424
-37.3573	-45.5074	32.29126
-37.3548	-48.479	32.3401
-37.3511	-44.2998	32.3889
-37.3461	-37.7157	32.4377
-37.3426	-40.1047	32.4866
-37.3383	-43.6775	32.5354
-37.3336	-45.8562	32.5842
-37.3285	-41.67281	32.6331
-37.3252	-37.6966	32.6819
-37.3227	-40.8561	32.7307
-37.3167	-44.5872	32.7795
-37.3135	-43.5402	32.8284
-37.31	-37.7948	32.8772
-37.3059	-40.522	32.926
-37.3013	-46.2976	32.9749
-37.2969	-48.0953	33.0237
-37.2941	-45.1717	33.07251
-37.2894	-38.3721	33.1213
-37.2859	-41.61171	33.1702
-37.2806	-44.0728	33.219
-37.2763	-47.45369	33.2678
-37.2741	-40.6261	33.31665
-37.2698	-37.6207	33.3655
-37.2649	-43.9851	33.4143
-37.2613	-45.5475	33.4631
-37.2559	-43.0111	33.512
-37.2526	-37.012	33.5608
-37.2492	-41.9963	33.6096
-37.244	-46.78463	33.6584
-37.2413	-48.9038	33.7073
-37.2375	-40.9365	33.7561
-37.2314	-37.6268	33.8049
-37.2281	-43.0817	33.85376
-37.2252	-45.3044	33.9026
-37.22	-45.411	33.9514
-37.2168	-39.3272	34.0002
-37.2115	-38.4397	34.0491
-37.2085	-44.5042	34.0979
-37.2045	-45.903	34.1467
-37.1994	-41.92794	34.1956
-37.19664	-37.1807	34.2444
-37.192	-41.8198	34.2932
-37.1879	-48.4022	34.342
-37.1827	-46.8661	34.3909
-37.1806	-39.7795	34.4397
-37.1777	-43.021	34.469

File: 0.254_hd_uprint_typeiv_4545_r(1).dat
MTS793|BTW|ENU|1|2|.|/|:|1|0|0|A

Data Header:			0.254_hd_uprint_typeiv_4545_r0			Time:	20.02002	s	4/13/2019 7:12:10 PM
Data Acquisition:	Timed
Station Name:	ft40.cfg
Test File Name:	monotonic_0.2540_typeiv_hd_4545_uprint.tst
Displacement	Force	Running Time
mm	N	s
-40.0428	-102.098	0.0236816
-40.0394	-113.1226	0.092041
-40.0355	-115.687	0.1604
-40.0296	-117.695	0.22876
-40.0248	-112.87	0.297119
-40.0171	-106.127	0.365479
-40.01189	-96.4211	0.433838
-40.0063	-87.0409	0.502197
-40.0011	-78.5989	0.570557
-39.9955	-69.1619	0.638916
-39.989	-68.3612	0.707275
-39.9841	-70.2347	0.775635
-39.9794	-73.1267	0.843994
-39.9724	-78.7051	0.912354
-39.9665	-75.9876	0.980713
-39.96104	-73.6732	1.04907
-39.9552	-68.23	1.11743
-39.9499	-57.9953	1.185791
-39.9445	-45.0644	1.25415
-39.9385	-33.7799	1.32251
-39.9318	-30.2419	1.39087
-39.927	-28.7318	1.45923
-39.9213	-32.07988	1.52759
-39.9149	-35.925	1.59595
-39.91066	-37.11977	1.66431
-39.9038	-38.1425	1.732666
-39.8988	-35.427	1.80103
-39.8933	-27.9168	1.86938
-39.8873	-13.7848	1.93774
-39.8815	-2.08464	2.0061
-39.8761	4.7199	2.07446
-39.8694	10.0615	2.14282
-39.8643	7.186069	2.21118
-39.8583	4.91547	2.279541
-39.8527	1.49466	2.3479
-39.8468	-0.284349	2.41626
-39.8418	-2.5738	2.48462
-39.8371	3.76299	2.55298
-39.8296	16.732	2.62134
-39.8242	26.7356	2.6897
-39.8187	37.4939	2.75806
-39.8135	45.0801	2.826416
-39.8069	46.1743	2.89478
-39.8004	46.1152	2.96313
-39.79615	43.4913	3.03149
-39.7909	37.7829	3.09985
-39.7846	33.1471	3.16821
-39.7795	37.9559	3.23657
-39.7732	49.3787	3.30493
-39.76796	55.8566	3.373291
-39.7616	68.47332	3.44165
-39.7554	78.3933	3.51001
-39.7506	82.1135	3.57837
-39.7446	84.5484	3.64673
-39.7389	84.1031	3.71509
-39.73418	76.4297	3.78345
-39.7286	72.56	3.85181
-39.7228	75.2909	3.920166
-39.7162	80.495	3.98853
-39.71	86.2762	4.05688
-39.7047	98.8917	4.12524
-39.69817	109.338	4.1936
-39.6933	115.116	4.26196
-39.68837	120.889	4.33032
-39.6809	122.531	4.39868
-39.6765	116.699	4.467041
-39.6714	110.664	4.5354
-39.666	112.366	4.60376
-39.65934	112.908	4.67212
-39.6531	117.084	4.74048
-39.6477	127.6177	4.80884
-39.64222	140.524	4.8772
-39.6361	147.746	4.94556
-39.6305	156.201	5.013916
-39.6271	158.993	5.08228
-39.62	153.587	5.15063
-39.6144	150.106	5.21899
-39.6085	151.588	5.28735
-39.6024	150.405	5.35571
-39.5971	149.934	5.42407
-39.5917	158.807	5.49243
-39.58482	167.3154	5.560791
-39.5801	178.009	5.62915
-39.5735	187.563	5.69751
-39.5685	192.025	5.76587
-39.56358	190.833	5.83423
-39.5572	190.331	5.90259
-39.5513	190.33	5.97095
-39.5463	186.157	6.03931
-39.5394	186.546	6.107666
-39.5337	190.6266	6.17603
-39.5297	195.66	6.24438
-39.5229	206.977	6.31274
-39.5171	219.7681	6.3811
-39.5117	224.687	6.44946
-39.50639	227.831	6.51782
-39.5007	229.293	6.58618
-39.494	228.2406	6.654541
-39.4897	222.723	6.7229
-39.48336	220.386	6.79126
-39.4784	222.17	6.85962
-39.4726	227.795	6.92798
-39.4665	236.32	6.99634
-39.4598	248.255	7.0647
-39.4541	256.09	7.13306
-39.44812	260.38	7.201416
-39.4439	266.8	7.26978
-39.4375	266.524	7.33813
-39.43222	261.967	7.40649
-39.427	258.857	7.47485
-39.42	256.269	7.54321
-39.4145	259.626	7.61157
-39.4098	265.661	7.67993
-39.4032	275.321	7.748291
-39.3976	282.595	7.81665
-39.3914	291.367	7.88501
-39.3859	302.778	7.95337
-39.3807	301.243	8.02173
-39.3746	298.389	8.09009
-39.3687	294.505	8.15845
-39.3635	291.873	8.22681
-39.3573	291.4093	8.295166
-39.35257	295.001	8.36353
-39.3466	301.947	8.43188
-39.3407	308.629	8.50024
-39.3353	320.342	8.5686
-39.329	331.782	8.63696
-39.3249	333.216	8.70532
-39.318	334.704	8.77368
-39.31345	331.561	8.842041
-39.3067	328.691	8.9104
-39.3005	326.147	8.97876
-39.2956	327.065	9.04712
-39.2914	329.751	9.11548
-39.2836	337.938	9.18384
-39.2792	350.217	9.2522
-39.2724	361.007	9.32056
-39.2662	365.571	9.388916
-39.2611	369.758	9.45728
-39.2555	367.189	9.52563
-39.2492	362.776	9.59399
-39.24498	360.5347	9.66235
-39.2383	358.113	9.73071
-39.2309	357.424	9.79907
-39.227	364.141	9.86743
-39.2215	378.546	9.935791
-39.2154	387.645	10.00415
-39.20932	395.946	10.07251
-39.2044	401.55	10.1409
-39.1973	400.704	10.2092
-39.1922	398.417	10.2776
-39.187	394.929	10.3459
-39.1826	390.537	10.4143
-39.1758	387.936	10.4827
-39.1705	392.492	10.551
-39.1641	402.685	10.6194
-39.1584	412.12	10.6877
-39.1527	423.024	10.7561
-39.1466	430.071	10.8245
-39.1409	432.085	10.8928
-39.136	432.481	10.9612
-39.131	429.229	11.0295
-39.1232	422.929	11.0979
-39.1194	417.374	11.16626
-39.1134	422.233	11.2346
-39.1078	428.313	11.303
-39.1014	435.577	11.3713
-39.0959	447.6441	11.4397
-39.0903	456.078	11.5081
-39.0833	460.543	11.5764
-39.0787	463.782	11.6448
-39.0735	460.466	11.7131
-39.0673	452.369	11.7815
-39.062	448.139	11.8499
-39.0568	451.81	11.9182
-39.0498	451.787	11.9866
-39.0441	459.3374	12.0549
-39.0394	470.56	12.1233
-39.0332	478.65	12.19165
-39.0274	487.1615	12.26001
-39.0229	491.352	12.3284
-39.0172	490.863	12.3967
-39.01	483.1897	12.4651
-39.00404	479.754	12.5334
-38.9992	479.865	12.6018
-38.9936	477.997	12.6702
-38.989	482.068	12.7385
-38.9825	491.965	12.8069
-38.97625	498.205	12.8752
-38.9709	508.635	12.9436
-38.9647	516.923	13.012
-38.9597	516.401	13.0803
-38.953	510.678	13.1487
-38.9473	509.002	13.217
-38.9426	507.671	13.2854
-38.9357	502.438	13.35376
-38.9309	503.396	13.4221
-38.924	508.433	13.4905
-38.9203	513.059	13.5588
-38.9135	523.429	13.6272
-38.908	533.264	13.6956
-38.902	535.546	13.7639
-38.896	536.268	13.8323
-38.8916	537.267	13.9006
-38.885	535.079	13.969
-38.8787	527.439	14.0374
-38.8756	523.662	14.1057
-38.8689	525.522	14.1741
-38.8625	528.877	14.2424
-38.8564	535.341	14.3108
-38.8518	546.192	14.37915
-38.8436	549.923	14.44751
-38.8396	552.572	14.5159
-38.83392	558.172	14.5842
-38.8284	553.849	14.6526
-38.8227	546.566	14.7209
-38.817	542.915	14.7893
-38.81036	538.316	14.8577
-38.80545	539.511	14.926
-38.8003	544.747	14.9944
-38.7931	552.167	15.0627
-38.7885	555.283	15.1311
-38.7822	563.294	15.1995
-38.7763	569.224	15.2678
-38.7704	566.476	15.3362
-38.76548	558.73	15.4045
-38.7601	555.816	15.4729
-38.7544	548.8338	15.54126
-38.7481	544.424	15.6096
-38.74239	547.44	15.678
-38.7374	551.459	15.7463
-38.7315	556.315	15.8147
-38.7255	565.427	15.8831
-38.7207	571.486	15.9514
-38.7136	570.4455	16.0198
-38.7082	565.909	16.0881
-38.7033	562.1283	16.1565
-38.69722	553.576	16.2249
-38.6911	546.263	16.2932
-38.686	545.085	16.3616
-38.6804	545.341	16.4299
-38.6752	547.704	16.4983
-38.6683	560.848	16.56665
-38.6623	566.1	16.63501
-38.6568	566.812	16.7034
-38.6515	567.125	16.7717
-38.6453	561.7771	16.8401
-38.6386	553.379	16.9084
-38.63451	546.056	16.9768
-38.6291	540.87	17.0452
-38.62191	536.665	17.1135
-38.6163	540.175	17.1819
-38.6118	551.76	17.2502
-38.6059	557.119	17.3186
-38.5999	560.634	17.387
-38.5923	563.1217	17.4553
-38.5891	560.105	17.5237
-38.583	553.909	17.592
-38.5771	545.374	17.6604
-38.5722	536.765	17.72876
-38.5654	532.346	17.7971
-38.5609	532.861	17.8655
-38.5535	542.197	17.9338
-38.5483	547.683	18.0022
-38.5433	553.074	18.0706
-38.5359	558.315	18.1389
-38.5314	558.519	18.2073
-38.5265	554.916	18.2756
-38.5196	545.1626	18.344
-38.5146	537.201	18.4124
-38.5086	528.91	18.4807
-38.50275	529.075	18.5491
-38.4977	533.657	18.6174
-38.4915	539.051	18.6858
-38.4863	546.67	18.75415
-38.4805	551.201	18.82251
-38.476	554.819	18.8909
-38.4695	553.253	18.9592
-38.4624	547.36	19.0276
-38.4566	536.586	19.0959
[...]
-38.0263	533.901	24.2717
-38.0232	510.624	24.301
-38.02235	537.062	24.3303
-38.018	512.605	24.3596
-38.016	535.683	24.3889
-38.0137	513.208	24.4182
-38.0124	533.965	24.44751
-38.0101	514.3291	24.4768
-38.0067	530.573	24.5061
-38.0055	520.792	24.5354
-38.0024	525.929	24.5647
-37.999	523.044	24.594
-37.9965	519.619	24.6233
-37.9949	530.613	24.6526
-37.9934	516.12	24.6819
-37.9898	530.445	24.7112
-37.9875	513.389	24.7405
-37.98476	538.526	24.7698
-37.9819	509.981	24.7991
-37.9792	532.189	24.8284
-37.9773	510.1362	24.8577
-37.9749	535.065	24.887
-37.9709	513.765	24.91626
-37.9701	528.258	24.9456
-37.967	519.3595	24.9749
-37.9645	525.316	25.00415
-37.9631	520.553	25.0334
-37.9605	520.306	25.0627
-37.9577	527.434	25.092
-37.95425	516.126	25.1213
-37.9519	531.92	25.1506
-37.9503	512.706	25.1799
-37.94854	532.464	25.2092
-37.9458	509.639	25.2385
-37.9425	535.567	25.2678
-37.9397	509.972	25.2971
-37.9382	533.1	25.3264
-37.9363	510.943	25.3557
-37.9325	531.089	25.38501
-37.93	515.119	25.4143
-37.9283	524.4494	25.4436
-37.9263	519.531	25.4729
-37.9236	523.349	25.5022
-37.9207	523.116	25.5315
-37.9201	513.558	25.5608
-37.9158	527.472	25.5901
-37.9139	515.5022	25.6194
-37.9108	533.269	25.6487
-37.9076	506.924	25.678
-37.9055	533.85	25.7073
-37.9047	508.706	25.7366
-37.90065	531.864	25.7659
-37.9	504.999	25.7952
-37.896	532.869	25.8245
-37.8939	511.445	25.85376
-37.8923	527.285	25.8831
-37.8895	510.935	25.9124
-37.8855	522.831	25.94165
-37.8834	516.6745	25.9709
-37.8827	516.415	26.0002
-37.8799	523.694	26.0295
-37.8769	512.563	26.0588
-37.8749	525.903	26.0881
-37.8721	505.501	26.1174
-37.87064	527.258	26.1467
-37.8669	500.207	26.176
-37.8641	527.214	26.2053
-37.8627	501.44	26.2346
-37.8602	526.168	26.2639
-37.8574	496.504	26.2932
-37.8536	519.563	26.32251
-37.8535	501.507	26.3518
-37.8503	514.138	26.3811
-37.8473	499.791	26.4104
-37.8441	506.594	26.4397
-37.8419	504.294	26.469
-37.8403	496.047	26.4983
-37.8374	499.924	26.5276
-37.8359	486.232	26.5569
-37.8322	500.465	26.5862
-37.8315	473.161	26.6155
-37.8272	487.617	26.6448
-37.8228	-56.2756	26.6741
-37.8228	-28.4705	26.7034
-37.8193	-55.9512	26.7327
-37.8161	-32.9865	26.762
-37.816	-51.3503	26.79126
-37.8132	-34.3634	26.8206
-37.81002	-49.371	26.8499
-37.8079	-38.25732	26.87915
-37.8058	-46.1685	26.9084
-37.8027	-41.556	26.9377
-37.7999	-41.1708	26.967
-37.7981	-44.2655	26.9963
-37.7954	-38.9453	27.0256
-37.7934	-49.0192	27.0549
-37.7901	-33.5634	27.0842
-37.7882	-50.4012	27.1135
-37.7857	-32.726	27.1428
-37.78421	-52.1399	27.1721
-37.7808	-29.99824	27.2014
-37.7782	-51.638	27.2307
-37.7764	-35.5955	27.26001
-37.7739	-50.5928	27.2893
-37.7728	-33.2874	27.3186
-37.7694	-47.4172	27.3479
-37.7666	-41.4378	27.3772
-37.7639	-43.64584	27.4065
-37.7611	-42.0183	27.4358
-37.7601	-39.9249	27.4651
-37.7564	-51.1096	27.4944
-37.7545	-32.9209	27.5237
-37.7521	-49.9696	27.553
-37.7495	-32.1648	27.5823
-37.7468	-56.2522	27.6116
-37.7443	-30.9808	27.6409
-37.74181	-55.5904	27.6702
-37.7398	-30.1875	27.6995
-37.7377	-52.5563	27.72876
-37.73497	-31.6908	27.7581
-37.7323	-49.909	27.7874
-37.73	-37.0489	27.81665
-37.7279	-46.8708	27.8459
-37.7254	-39.226	27.8752
-37.7226	-41.0566	27.9045
-37.72031	-42.6993	27.9338
-37.7186	-36.9514	27.9631
-37.7151	-52.3554	27.9924
-37.7114	-33.9127	28.0217
-37.7112	-51.5235	28.051
-37.7072	-29.9116	28.0803
-37.707	-55.8675	28.1096
-37.7029	-29.4338	28.1389
-37.6998	-52.4353	28.1682
-37.6987	-31.3951	28.19751
-37.696	-55.82098	28.2268
-37.6934	-32.5169	28.2561
-37.691	-47.0992	28.2854
-37.6889	-36.833	28.3147
-37.6855	-47.9311	28.344
-37.6835	-41.8418	28.3733
-37.68092	-39.6173	28.4026
-37.6783	-47.4566	28.4319
-37.6767	-40.1275	28.4612