Folder: Stress_Strain_Analysis_Tools/data/processed_data_files/tensile (part 38)

File: 0.254_solid_dimension_typeiv_090_r(6).dat
MTS793|BTW|ENU|1|2|.|/|:|1|0|0|A

Data Header:			0.254_solid_dimension_typeiv_090_r0			Time:	20.0176	s	4/14/2019 1:49:42 AM
Data Acquisition:	Timed
Station Name:	ft40.cfg
Test File Name:	monotonic_0.2540_typeiv_solid_090_dimension.tst
Displacement	Force	Running Time
mm	N	s
-40.0415	-31.8305	0.0224609
-40.0399	-32.58736	0.0908203
-40.0334	-22.2599	0.15918
-40.0268	-20.7158	0.227539
-40.0218	-20.703	0.295898
-40.0155	-15.7853	0.364258
-40.011	-14.2866	0.432617
-40.0052	-9.9783	0.500977
-39.9987	-7.5922	0.569336
-39.9936	-1.83873	0.637695
-39.9876	-1.65429	0.706055
-39.9822	3.13833	0.774414
-39.977	13.6708	0.842773
-39.9701	15.7728	0.911133
-39.96492	19.3186	0.979492
-39.9593	23.59441	1.04785
-39.95348	22.896	1.11621
-39.9479	25.3765	1.18457
-39.9434	29.23078	1.25293
-39.9361	32.0086	1.32129
-39.9306	35.9552	1.38965
-39.9245	40.027	1.45801
-39.9195	48.2828	1.52637
-39.915	52.9005	1.59473
-39.9072	56.0118	1.66309
-39.9011	59.7713	1.73145
-39.8974	60.1095	1.7998
-39.8899	64.3498	1.86816
-39.885	67.2916	1.93652
-39.8804	67.1444	2.00488
-39.8748	69.9102	2.07324
-39.8682	76.8974	2.1416
-39.8628	82.722	2.20996
-39.8562	86.5658	2.27832
-39.8531	92.4954	2.34668
-39.8459	94.0708	2.41504
-39.8395	97.32753	2.4834
-39.8339	100.563	2.55176
-39.8279	103.663	2.62012
-39.8231	103.082	2.68848
-39.81609	105.478	2.75684
-39.812	112.692	2.8252
-39.8056	115.874	2.89355
-39.80061	120.563	2.96191
-39.7934	127.106	3.03027
-39.789	130.189	3.09863
-39.7822	134.4034	3.16699
-39.77784	139.402	3.23535
-39.771	140.143	3.30371
-39.7662	138.9122	3.37207
-39.7596	141.339	3.44043
-39.7553	146.601	3.50879
-39.7484	150.631	3.57715
-39.7428	152.54	3.64551
-39.7367	160.459	3.71387
-39.7324	165.135	3.78223
-39.7252	168.764	3.85059
-39.7207	172.792	3.91895
-39.7148	175.221	3.9873
-39.709	172.617	4.05566
-39.7028	174.812	4.12402
-39.698	181.685	4.19238
-39.6916	181.774	4.26074
-39.6858	186.5545	4.3291
-39.6809	193.9951	4.39746
-39.6748	197	4.46582
-39.6694	201.3	4.53418
-39.6632	206.694	4.60254
-39.6576	209.684	4.6709
-39.6515	206.34	4.73926
-39.646	210.154	4.80762
-39.64072	214.845	4.87598
-39.6356	216.477	4.94434
-39.6283	218.911	5.0127
-39.6227	225.895	5.08105
-39.618	229.451	5.14941
-39.6119	235.617	5.21777
-39.6062	240.923	5.28613
-39.6009	244.081	5.35449
-39.5946	242.665	5.42285
-39.589	244.8528	5.49121
-39.583	251.158	5.55957
-39.578	249.232	5.62793
-39.5719	251.689	5.69629
-39.5666	257	5.76465
-39.5615	260.893	5.83301
-39.5542	268.3533	5.90137
-39.5497	274.175	5.96973
-39.5448	276.129	6.03809
-39.5378	274.309	6.10645
-39.5313	279.408	6.1748
-39.5271	283.573	6.24316
-39.5208	283.327	6.31152
-39.5161	283.906	6.37988
-39.5098	288.623	6.44824
-39.50367	292.4072	6.5166
-39.4973	298.96	6.58496
-39.4922	304.1601	6.65332
-39.4873	306.806	6.72168
-39.4803	308.201	6.79004
-39.4756	312.3186	6.8584
-39.4685	315.445	6.92676
-39.4649	313.729	6.99512
-39.4587	314.446	7.06348
-39.4541	317.925	7.13184
-39.4465	322.869	7.2002
-39.4413	328.115	7.26855
-39.4352	332.509	7.33691
-39.4291	334.001	7.40527
-39.4248	338.188	7.47363
-39.4183	343.678	7.54199
-39.4118	343.497	7.61035
-39.408	344.765	7.67871
-39.4007	346.311	7.74707
-39.3947	347.071	7.81543
-39.3894	351.467	7.88379
-39.3846	355.378	7.95215
-39.3797	359.5351	8.02051
-39.373	362.593	8.08887
-39.3667	367.142	8.15723
-39.3612	372.552	8.22559
-39.3562	373.471	8.29395
-39.3508	375.595	8.3623
-39.3434	375.349	8.43066
-39.3387	375.752	8.49902
-39.3336	377.961	8.56738
-39.3278	383.172	8.63574
-39.32177	385.296	8.7041
-39.3157	386.927	8.77246
-39.3101	393.057	8.84082
-39.3045	400.372	8.90918
-39.29866	398.96	8.97754
-39.2929	401.107	9.0459
-39.2858	402.578	9.11426
-39.2816	400.855	9.18262
-39.2761	403.773	9.25098
-39.2699	407.915	9.31934
-39.2647	408.1412	9.3877
-39.2579	410.7507	9.45605
-39.2533	416.567	9.52441
-39.248	421.658	9.59277
-39.2422	422.312	9.66113
-39.2366	424.51	9.72949
-39.2311	426.284	9.79785
-39.2247	423.65	9.86621
-39.2186	426.827	9.93457
-39.2138	429.416	10.00293
-39.2075	427.472	10.0713
-39.2022	428.633	10.1396
-39.1963	434.188	10.208
-39.1909	438.867	10.2764
-39.1853	438.901	10.3447
-39.1802	443.002	10.4131
-39.1735	444.583	10.4814
-39.1673	442.459	10.5498
-39.1623	443.022	10.6182
-39.1563	444.779	10.6865
-39.1508	441.63	10.7549
-39.1451	440.674	10.8232
-39.1392	447.202	10.8916
-39.1345	451.417	10.96
-39.1277	449.036	11.02832
-39.1225	453.694	11.09668
-39.116	454.22	11.165
-39.1103	454.146	11.2334
-39.1054	453.223	11.3018
-39.099	451.737	11.3701
-39.0923	447.4996	11.4385
-39.0882	447.63	11.5068
-39.0825	452.273	11.5752
-39.0773	452.595	11.6436
-39.0715	455.683	11.7119
-39.065	457.905	11.7803
-39.0597	457.628	11.8486
-39.0536	457.5896	11.917
-39.0474	458.163	11.9854
-39.0429	455.1687	12.0537
-39.0358	448.566	12.12207
-39.0315	448.082	12.19043
-39.0255	451.324	12.2588
-39.0198	451.0686	12.3271
-39.0133	451.1	12.3955
-39.0082	454.974	12.4639
-39.0031	456.265	12.5322
-38.9974	455.969	12.6006
-38.9921	455.7999	12.6689
-38.9855	453.46	12.7373
-38.98082	447.6647	12.8057
-38.975	445.984	12.874
-38.9683	448.412	12.9424
-38.9628	446.668	13.0107
-38.9568	446.465	13.0791
-38.9523	449.164	13.1475
-38.9456	450.474	13.21582
-38.9395	452	13.28418
-38.9348	452.429	13.3525
-38.929	449.111	13.4209
-38.9219	445.967	13.4893
-38.9174	444.706	13.5576
-38.9119	445.155	13.626
-38.9066	440.654	13.6943
-38.90094	441.934	13.7627
-38.8936	443.958	13.8311
-38.8888	445.468	13.8994
-38.8841	447.276	13.9678
-38.8779	449.38	14.0361
-38.8711	443.592	14.1045
-38.8653	440.993	14.1729
-38.8601	443.2132	14.2412
-38.8552	439.9408	14.30957
-38.8492	436.374	14.37793
-38.8441	438.311	14.4463
-38.8373	438.2	14.5146
-38.8319	441.83	14.583
-38.8266	442.546	14.6514
-38.8212	443.833	14.7197
-38.814	440.1246	14.7881
-38.8087	440.75	14.8564
-38.8034	440.009	14.9248
-38.7985	436.724	14.9932
-38.792	437.022	15.0615
-38.7867	434.888	15.1299
-38.7805	433.277	15.1982
-38.775	437.6355	15.2666
-38.7691	440.18	15.335
-38.7646	439.565	15.40332
-38.7575	438.534	15.47168
-38.7521	440.675	15.54
-38.7471	439.639	15.6084
-38.74049	435.795	15.6768
-38.7348	435.057	15.7451
-38.73119	433.283	15.8135
-38.7239	430.518	15.8818
-38.7181	433.868	15.9502
-38.7125	437.23	16.0186
-38.7059	433.192	16.0869
-38.7009	436.368	16.1553
-38.6959	440.82	16.2236
-38.6905	439.725	16.292
-38.6834	435.36	16.3604
-38.678	434.702	16.4287
-38.673	432.021	16.49707
-38.6673	429.418	16.56543
-38.6611	432.937	16.6338
-38.6547	434.805	16.7021
-38.6497	431.2	16.7705
-38.6428	433.189	16.8389
-38.6379	439.652	16.9072
-38.6325	437.671	16.9756
-38.627	432.676	17.0439
-38.6208	436.463	17.1123
-38.6159	432.753	17.1807
-38.6093	430.585	17.249
-38.60416	431.368	17.3174
-38.5976	431.462	17.3857
-38.5925	428.9166	17.4541
-38.5867	429.887	17.5225
-38.5803	437.8353	17.59082
-38.5751	435.776	17.65918
-38.5696	434.977	17.7275
-38.5646	436.99	17.7959
-38.558	432.353	17.8643
-38.5526	429.807	17.9326
-38.5465	431.185	18.001
-38.5422	430.035	18.0693
-38.5356	426.099	18.1377
-38.5298	429.9	18.2061
-38.5243	435.975	18.2744
-38.5183	435.307	18.3428
-38.5121	433.804	18.4111
-38.5072	436.046	18.4795
-38.50174	434.39	18.5479
-38.49572	431.153	18.6162
-38.4903	430.556	18.68457
-38.4845	428.687	18.75293
-38.4792	425.414	18.8213
-38.4747	429.046	18.8896
-38.4675	432.077	18.958
-38.4614	432.747	19.0264
-38.4562	432.844	19.0947
-38.4496	436.307	19.1631
-38.4449	434.06	19.2314
-38.4386	433.026	19.2998
[...]
-38.1624	-47.09457	22.6299
-38.1582	-40.542	22.65918
-38.1557	-48.58622	22.6885
-38.15374	-40.5719	22.7178
-38.1507	-45.7156	22.74707
-38.1483	-42.2246	22.7764
-38.146	-43.542	22.8057
-38.1434	-42.04171	22.835
-38.1411	-44.5282	22.8643
-38.1388	-47.0421	22.8936
-38.1366	-40.518	22.9229
-38.1339	-45.8327	22.9521
-38.1319	-39.06044	22.9814
-38.1285	-46.1595	23.0107
-38.1264	-40.1071	23.04
-38.1251	-49.3773	23.0693
-38.1219	-40.3395	23.0986
-38.1198	-45.13	23.12793
-38.1175	-38.6816	23.1572
-38.1146	-47.6867	23.1865
-38.1121	-40.44759	23.21582
-38.1102	-44.889	23.2451
-38.1076	-44.7141	23.2744
-38.1045	-44.8822	23.3037
-38.1026	-42.0808	23.333
-38.0999	-41.8776	23.3623
-38.0974	-47.0001	23.3916
-38.096	-44.8999	23.4209
-38.092	-45.0806	23.4502
-38.0907	-39.5082	23.4795
-38.0875	-46.178	23.5088
-38.0851	-40.6928	23.5381
-38.0829	-43.7316	23.5674
-38.0802	-41.3938	23.59668
-38.0787	-47.9028	23.626
-38.075	-41.2325	23.6553
-38.0738	-45.034	23.68457
-38.0703	-42.6865	23.7139
-38.06794	-44.5481	23.7432
-38.0665	-43.5675	23.7725
-38.0629	-42.6095	23.8018
-38.0612	-44.9053	23.8311
-38.058	-42.4254	23.8604
-38.0549	-43.2832	23.8896
-38.055	-40.0561	23.9189
-38.0513	-45.9262	23.9482
-38.0487	-40.2084	23.9775
-38.0457	-47.0114	24.0068
-38.04417	-41.2358	24.0361
-38.04203	-46.3112	24.06543
-38.0391	-38.6096	24.0947
-38.036	-44.131	24.124
-38.0346	-44.8927	24.15332
-38.0321	-43.7066	24.1826
-38.0301	-42.5576	24.2119
-38.0265	-41.9418	24.2412
-38.0253	-46.448	24.2705
-38.02079	-41.1087	24.2998
-38.0208	-46.2704	24.3291
-38.0163	-43.20787	24.3584
-38.0145	-47.3266	24.3877
-38.0127	-37.5856	24.417
-38.0103	-47.0689	24.4463
-38.0069	-41.7021	24.4756
-38.0047	-46.604	24.5049
-38.0026	-40.014	24.53418
-38.0002	-47.1973	24.5635
-37.9985	-42.1905	24.5928
-37.995	-45.0308	24.62207
-37.9921	-41.7173	24.6514
-37.9915	-43.9462	24.6807
-37.9879	-43.6104	24.71
-37.9852	-43.0461	24.7393
-37.98296	-43.412	24.7686
-37.9805	-40.4776	24.7979
-37.9789	-45.5893	24.8271
-37.9743	-39.5089	24.8564
-37.9741	-48.7877	24.8857
-37.9702	-40.1476	24.915
-37.9685	-46.8916	24.9443
-37.9654	-40.1383	24.9736
-37.9636	-47.5613	25.00293
-37.9619	-39.65	25.0322
-37.9597	-45.2764	25.0615
-37.9558	-41.2413	25.09082
-37.9536	-46.9734	25.1201
-37.9516	-40.605	25.1494
-37.9497	-42.1758	25.1787
-37.9464	-45.5307	25.208
-37.9436	-44.5649	25.2373
-37.94244	-44.2224	25.2666
-37.939	-41.6374	25.2959
-37.9368	-46.9188	25.3252
-37.9339	-41.0985	25.3545
-37.9313	-45.3642	25.3838
-37.9291	-41.5416	25.4131
-37.9262	-48.9776	25.4424
-37.9247	-40.8393	25.47168
-37.922	-44.6979	25.501
-37.9197	-41.257	25.5303
-37.9169	-46.9744	25.55957
-37.9151	-40.8252	25.5889
-37.91161	-45.254	25.6182
-37.9094	-44.5052	25.6475
-37.9072	-41.7869	25.6768
-37.9046	-42.4846	25.7061
-37.903	-42.3187	25.7354
-37.9005	-44.7329	25.7646
-37.8977	-40.2136	25.7939
-37.8947	-46.69083	25.8232
-37.8908	-44.1956	25.8525
-37.8905	-46.4112	25.8818
-37.8883	-39.1427	25.9111
-37.8848	-45.2298	25.94043
-37.8822	-44.3014	25.9697
-37.8809	-45.23	25.999
-37.8791	-42.851	26.02832
-37.8759	-44.6113	26.0576
-37.8717	-45.0532	26.0869
-37.8716	-42.4426	26.1162
-37.86813	-44.3537	26.1455
-37.866	-43.322	26.1748
-37.8647	-48.59552	26.2041
-37.8604	-40.7492	26.2334
-37.8587	-46.4979	26.2627
-37.856	-41.4056	26.292
-37.8526	-47.8015	26.3213
-37.851	-40.1856	26.3506
-37.8485	-48.9257	26.3799
-37.8467	-41.0836	26.40918
-37.84409	-46.72459	26.4385
-37.841	-40.5859	26.4678
-37.8383	-45.4251	26.49707
-37.8362	-43.1902	26.5264
-37.83358	-43.1676	26.5557
-37.8311	-44.6244	26.585
-37.82972	-41.8999	26.6143
-37.8265	-44.6859	26.6436
-37.8243	-39.9603	26.6729
-37.8212	-48.4864	26.7021
-37.8203	-41.4102	26.72168

File: 0.254_solid_dimension_typeiv_090_r(7).dat
MTS793|BTW|ENU|1|2|.|/|:|1|0|0|A

Data Header:			0.254_solid_dimension_typeiv_090_r0			Time:	20.0225	s	4/14/2019 1:53:41 AM
Data Acquisition:	Timed
Station Name:	ft40.cfg
Test File Name:	monotonic_0.2540_typeiv_solid_090_dimension.tst
Displacement	Force	Running Time
mm	N	s
-40.0416	-121.583	0.02734375
-40.0393	-122.771	0.0957031
-40.0338	-119.535	0.1640625
-40.02721	-114.055	0.232422
-40.021	-114.272	0.300781
-40.0166	-111.888	0.369141
-40.0104	-107.282	0.4375
-40.0046	-103.137	0.505859
-39.9992	-95.8556	0.574219
-39.994	-91.1807	0.642578
-39.9874	-86.6414	0.7109375
-39.9819	-84.6085	0.779297
-39.9767	-80.0774	0.847656
-39.9712	-75.55825	0.916016
-39.9647	-75.4461	0.984375
-39.9596	-73.1466	1.05273
-39.9545	-69.961	1.12109
-39.9479	-69.3785	1.18945
-39.9418	-60.4506	1.25781
-39.9363	-55.4824	1.32617
-39.9301	-50.3624	1.39453
-39.9242	-50.0168	1.46289
-39.9188	-43.5003	1.53125
-39.9135	-39.14579	1.59961
-39.9087	-38.2606	1.66797
-39.9026	-34.7255	1.73633
-39.8956	-33.1915	1.80469
-39.8902	-31.0516	1.87305
-39.8849	-24.5131	1.94141
-39.879	-18.2076	2.00977
-39.8735	-16.5998	2.078125
-39.868	-14.674	2.14648
-39.86272	-7.47987	2.21484
-39.8559	-0.2540032	2.2832
-39.8506	-2.447278	2.35156
-39.8452	-1.1127	2.41992
-39.8389	4.36597	2.48828
-39.83445	1.00337	2.55664
-39.8283	6.97626	2.625
-39.8229	14.1557	2.69336
-39.817	17.7492	2.76172
-39.81144	19.9102	2.83008
-39.8051	26.1011	2.89844
-39.799	33.8156	2.9668
-39.79451	34.4328	3.03516
-39.788	34.9791	3.10352
-39.7826	40.8672	3.171875
-39.7767	39.7759	3.24023
-39.7709	44.7408	3.30859
-39.76651	49.0171	3.37695
-39.759	52.9603	3.44531
-39.7545	54.8378	3.51367
-39.7486	63.2956	3.58203
-39.7422	70.6388	3.65039
-39.7365	69.0194	3.71875
-39.7317	73.7207	3.78711
-39.7249	76.7136	3.85547
-39.7209	78.7054	3.92383
-39.71463	79.3664	3.99219
-39.7091	84.6329	4.06055
-39.703	86.6578	4.12891
-39.6981	88.869	4.19727
-39.6916	96.6154	4.265625
-39.68618	103.653	4.33398
-39.6803	104.898	4.40234
-39.6749	108.789	4.4707
-39.6684	112.8614	4.53906
-39.6639	114.742	4.60742
-39.6571	115.865	4.67578
-39.6516	120.575	4.74414
-39.64613	122.883	4.8125
-39.6393	125.221	4.88086
-39.6347	129.666	4.94922
-39.629	137.23	5.01758
-39.6244	140.613	5.08594
-39.6178	144.872	5.1543
-39.6128	148.624	5.22266
-39.60688	149.631	5.29102
-39.6009	152.408	5.359375
-39.5947	155.099	5.42773
-39.58905	156.541	5.49609
-39.5839	158.241	5.56445
-39.5782	164.329	5.63281
-39.57198	169.7921	5.70117
-39.5667	173.764	5.76953
-39.5604	178.626	5.83789
-39.5541	182.641	5.90625
-39.5484	184.995	5.97461
-39.5438	187.994	6.04297
-39.5388	189.856	6.11133
-39.5322	190.291	6.17969
-39.5269	192.303	6.24805
-39.5214	197.433	6.31641
-39.5152	202.569	6.38477
-39.5095	206.649	6.453125
-39.5034	211.399	6.52148
-39.4979	216.2	6.58984
-39.4929	217.94	6.6582
-39.4875	222.027	6.72656
-39.4816	225.2459	6.79492
-39.4753	224.081	6.86328
-39.4702	225.284	6.93164
-39.4641	231.06	7
-39.458	234.62	7.06836
-39.4522	238.736	7.13672
-39.4466	244.469	7.20508
-39.4414	250.105	7.27344
-39.43573	253.998	7.3418
-39.4299	258.222	7.41016
-39.424	260.293	7.47852
-39.4185	257.453	7.546875
-39.4128	257.667	7.61523
-39.4065	266.203	7.68359
-39.4006	264.417	7.75195
-39.3951	269.705	7.82031
-39.3905	276.872	7.88867
-39.3844	279.142	7.95703
-39.378	284.98	8.02539
-39.3728	289.7413	8.09375
-39.3677	293.071	8.16211
-39.3616	291.031	8.23047
-39.3553	292.375	8.29883
-39.3498	298.115	8.36719
-39.3447	296.437	8.43555
-39.3393	299.428	8.50391
-39.3333	306.877	8.57227
-39.3285	310.205	8.640625
-39.3218	315.175	8.70898
-39.3158	323.316	8.77734
-39.3103	323.302	8.8457
-39.3047	322.703	8.91406
-39.2997	325.022	8.98242
-39.2934	329.557	9.05078
-39.2862	327.879	9.11914
-39.2821	330.633	9.1875
-39.275	336.368	9.25586
-39.2703	339.434	9.32422
-39.2644	345.648	9.39258
-39.2584	352.15	9.46094
-39.2534	354.4617	9.5293
-39.2478	353.417	9.59766
-39.2414	355.674	9.66602
-39.2352	358.204	9.734375
-39.2309	358.331	9.80273
-39.2253	358.35	9.87109
-39.2202	363.623	9.93945
-39.2129	367.098	10.0078
-39.2086	373.343	10.0762
-39.2027	376.824	10.1445
-39.197	382.1344	10.2129
-39.19	383.165	10.28125
-39.18454	384.2706	10.3496
-39.1784	389.394	10.418
-39.1735	388.897	10.4863
-39.1678	388.416	10.5547
-39.1623	390.622	10.623
-39.157	392.381	10.6914
-39.1495	398.981	10.7598
-39.1452	402.384	10.8281
-39.139	406.715	10.8965
-39.1333	408.585	10.9648
-39.1278	412.872	11.0332
-39.1221	416.592	11.1016
-39.1157	414.951	11.1699
-39.111	414.022	11.2383
-39.1057	415.066	11.3066
-39.101	417.1839	11.375
-39.0934	422.689	11.4434
-39.0875	425.912	11.5117
-39.0821	429.123	11.5801
-39.0764	431.989	11.6484
-39.0717	435.192	11.7168
-39.0643	438.358	11.7852
-39.06	436.99	11.8535
-39.053	438.165	11.9219
-39.0478	437.7847	11.9902
-39.0425	438.315	12.0586
-39.0363	442.04	12.127
-39.0317	445.807	12.1953
-39.0251	446.447	12.2637
-39.0198	450.139	12.332
-39.0141	454.131	12.4004
-39.0083	456.132	12.46875
-39.0027	456.147	12.5371
-38.9975	456.044	12.6055
-38.9917	455.156	12.6738
-38.9851	453.756	12.7422
-38.9798	458.552	12.8105
-38.9744	458.3428	12.8789
-38.9689	458.424	12.9473
-38.9616	459.512	13.0156
-38.9563	467.65	13.084
-38.9512	467.667	13.1523
-38.9456	466.824	13.2207
-38.9398	467.896	13.2891
-38.9339	466.037	13.3574
-38.9291	464.666	13.4258
-38.9228	465.273	13.4941
-38.91753	464.739	13.5625
-38.9125	463.174	13.6309
-38.9073	465.265	13.6992
-38.8994	470.544	13.7676
-38.8946	470.028	13.8359
-38.8883	470.95	13.9043
-38.88295	471.043	13.9727
-38.87727	469.787	14.041
-38.8724	467.213	14.1094
-38.86639	467.434	14.1777
-38.8602	466.926	14.2461
-38.8551	462.369	14.3145
-38.8488	463.653	14.3828
-38.8435	468.216	14.4512
-38.838	468.068	14.5195
-38.8316	469.8208	14.5879
-38.8258	470.974	14.65625
-38.8203	468.748	14.7246
-38.8152	466.471	14.793
-38.8083	466.7326	14.8613
-38.804	463.18	14.9297
-38.7972	458.421	14.998
-38.7917	459.503	15.0664
-38.7862	464.972	15.1348
-38.7811	462.121	15.2031
-38.7753	462.853	15.2715
-38.7695	466.078	15.3398
-38.7637	464.073	15.4082
-38.7573	463.144	15.4766
-38.7518	461.736	15.5449
-38.746	458.971	15.6133
-38.7407	452.429	15.6816
-38.7343	451.235	15.75
-38.7292	457.073	15.8184
-38.7235	456.05	15.8867
-38.7175	455.734	15.9551
-38.7123	459.911	16.0234
-38.70647	459.729	16.0918
-38.6996	458.872	16.1602
-38.6947	459.4447	16.2285
-38.6895	454.952	16.2969
-38.6838	448.66	16.3652
-38.6786	450.498	16.4336
-38.6718	450.893	16.502
-38.6661	450.536	16.5703
-38.6605	451.784	16.6387
-38.6557	454.327	16.707
-38.6492	455.159	16.7754
-38.644	455.612	16.84375
-38.6369	455.437	16.9121
-38.6316	452.608	16.9805
-38.6249	448.743	17.0488
-38.6208	447.685	17.1172
-38.6155	448.676	17.1855
-38.6094	446.144	17.2539
-38.604	448.754	17.3223
-38.5995	451.2334	17.3906
-38.5929	450.621	17.459
-38.5871	453.24	17.5273
-38.5812	453.402	17.5957
-38.5752	450.821	17.6641
-38.5696	446.272	17.7324
-38.5641	446.979	17.8008
-38.5587	446.344	17.8691
-38.5532	444.632	17.9375
-38.548	446.052	18.0059
-38.5405	444.587	18.0742
-38.5348	448.567	18.1426
-38.5305	452.46	18.2109
-38.52409	451.946	18.2793
-38.51897	448.702	18.3477
-38.51305	447.492	18.416
-38.507	447.793	18.4844
-38.5021	444.4155	18.5527
-38.49538	444.378	18.6211
-38.4892	445.132	18.6895
-38.4833	444.072	18.7578
-38.4786	447.117	18.8262
-38.4734	450.909	18.8945
-38.4671	451.356	18.9629
-38.4619	448.072	19.03125
-38.4569	451.006	19.0996
-38.45	450.919	19.168
[...]
-37.82214	443.395	26.707
-37.8177	439.481	26.7656
-37.8126	439.985	26.8242
-37.8068	435.558	26.8828
-37.8019	435.8551	26.9414
-37.7985	435.346	27
-37.7914	435.62	27.0586
-37.7869	437.344	27.1172
-37.783	437.435	27.1758
-37.7777	441.279	27.2344
-37.7719	439.834	27.293
-37.7679	444.966	27.3516
-37.76265	445.18	27.4102
-37.7577	445.3548	27.46875
-37.7533	445.549	27.5273
-37.749	446.593	27.5859
-37.7443	443.746	27.6445
-37.7392	440.439	27.7031
-37.7345	442.059	27.7617
-37.7286	438.854	27.8203
-37.7232	439.334	27.8789
-37.7189	436.582	27.9375
-37.7144	438.383	27.9961
-37.7093	437.109	28.0547
-37.7044	440.208	28.1133
-37.6996	440.4346	28.1719
-37.6953	441.112	28.2305
-37.6899	443.9	28.2891
-37.6842	442.233	28.3477
-37.6805	442.7099	28.40625
-37.676	439.83	28.4648
-37.6707	442.325	28.5234
-37.6665	436.8382	28.582
-37.6613	439.475	28.6406
-37.6571	435.573	28.6992
-37.6523	434.7215	28.7578
-37.6465	433.056	28.8164
-37.6421	433.556	28.875
-37.6365	432.293	28.9336
-37.6313	433.904	28.9922
-37.6265	436.47	29.0508
-37.6215	436.374	29.1094
-37.6163	441.052	29.168
-37.6123	441.979	29.2266
-37.60717	441.254	29.2852
-37.6012	442.142	29.34375
-37.5986	443.024	29.4023
-37.5918	442.249	29.4609
-37.5881	440.342	29.5195
-37.5826	439.587	29.5781
-37.5765	435.124	29.6367
-37.5742	436.851	29.6953
-37.5672	433.9758	29.7539
-37.5637	435.246	29.8125
-37.5585	432.048	29.8711
-37.5541	435.96	29.9297
-37.54821	433.166	29.9883
-37.54343	434.67	30.0469
-37.5382	437.234	30.1055
-37.5338	438.859	30.1641
-37.529	437.233	30.2227
-37.5233	437.756	30.28125
-37.5192	436.9198	30.3398
-37.5146	433.274	30.3984
-37.5099	435.568	30.457
-37.5054	430.7753	30.5156
-37.4988	429.699	30.5742
-37.4949	427.118	30.6328
-37.4891	424.737	30.6914
-37.4856	417.943	30.75
-37.4776	-43.5231	30.8086
-37.47604	-47.92062	30.8672
-37.4691	-45.6165	30.9258
-37.4654	-42.6697	30.9844
-37.4597	-43.51881	31.043
-37.4557	-39.8829	31.1016
-37.4495	-38.8666	31.1602
-37.445	-36.4656	31.21875
-37.4408	-40.0006	31.2773
-37.4354	-38.7425	31.3359
-37.4313	-40.6476	31.3945
-37.4261	-43.5495	31.4531
-37.421	-42.99136	31.5117
-37.4169	-45.2817	31.5703
-37.4116	-45.884	31.6289
-37.4063	-46.4022	31.6875
-37.4012	-44.5946	31.7461
-37.3969	-46.03841	31.8047
-37.39204	-42.2748	31.8633
-37.3866	-44.0385	31.9219
-37.3826	-40.2536	31.9805
-37.3767	-41.5494	32.0391
-37.3729	-39.3554	32.0977
-37.3672	-39.714	32.15625
-37.3632	-41.5087	32.2148
-37.3576	-40.2966	32.2734
-37.35228	-42.85754	32.332
-37.3472	-43.1377	32.3906
-37.34343	-48.2632	32.4492
-37.3391	-45.0261	32.5078
-37.3328	-49.5175	32.5664
-37.3286	-48.627	32.625
-37.3246	-48.3121	32.6836
-37.3187	-48.2835	32.7422
-37.3131	-46.51091	32.8008
-37.309	-44.48259	32.8594
-37.3041	-43.2686	32.918
-37.2993	-41.3179	32.9766
-37.2942	-38.2225	33.0352
-37.2886	-39.00127	33.09375
-37.2852	-40.0176	33.1523
-37.2798	-40.4852	33.2109
-37.2758	-42.0583	33.2695
-37.2701	-43.70224	33.3281
-37.2645	-44.8199	33.3867
-37.2599	-45.0439	33.4453
-37.2558	-49.107	33.5039
-37.2508	-44.1144	33.5625
-37.2448	-49.49	33.6211
-37.2411	-44.99139	33.6797
-37.2351	-46.4434	33.7383
-37.2309	-41.9174	33.7969
-37.2258	-43.2718	33.8555
-37.2206	-39.7112	33.9141
-37.21608	-38.9911	33.9727
-37.211	-41.58596	34.03125
-37.2063	-40.961	34.0898
-37.2011	-41.6662	34.1484
-37.1967	-42.4055	34.207
-37.1926	-44.5878	34.2656
-37.18605	-41.692	34.3242
-37.1819	-49.906	34.3828
-37.1756	-47.2213	34.4414
-37.1724	-49.6542	34.5
-37.1681	-47.4881	34.5586
-37.163	-48.3066	34.6172
-37.1571	-45.4155	34.6758
-37.1527	-44.5904	34.7344
-37.1488	-43.226	34.793
-37.1427	-38.3373	34.8516
-37.1386	-40.36	34.9102
-37.133	-38.5406	34.96875
-37.1281	-39.3035	35.0273
-37.1269	-40.8356	35.0371