Folder: Stress_Strain_Analysis_Tools/data/processed_data_files/tensile (part 29)

File: 0.254_hd_uprint_typeiv_4545_r(10).dat
MTS793|BTW|ENU|1|2|.|/|:|1|0|0|A

Data Header:			0.254_hd_uprint_typeiv_4545_r0			Time:	20.0178	s	4/13/2019 7:58:22 PM
Data Acquisition:	Timed
Station Name:	ft40.cfg
Test File Name:	monotonic_0.2540_typeiv_hd_4545_uprint.tst
Displacement	Force	Running Time
mm	N	s
-40.0347	-122.947	0.0227051
-40.0314	-121.631	0.0910645
-40.026	-118.154	0.159424
-40.0191	-115.065	0.2277832
-40.0146	-114.8187	0.296143
-40.0075	-115.1149	0.364502
-40.0032	-114.158	0.432861
-39.9977	-105.764	0.5012207
-39.9918	-100.872	0.56958
-39.9852	-98.1087	0.637939
-39.9806	-89.9676	0.706299
-39.9749	-88.09449	0.7746582
-39.9687	-83.7046	0.843018
-39.9628	-79.719	0.911377
-39.958	-82.1049	0.979736
-39.95293	-82.8727	1.0481
-39.9471	-77.8857	1.11646
-39.9399	-73.1104	1.18481
-39.93536	-70.2507	1.25317
-39.9293	-65.8997	1.32153
-39.925	-57.7078	1.38989
-39.9179	-56.2442	1.458252
-39.912	-51.4868	1.52661
-39.9052	-46.6553	1.59497
-39.9013	-46.9654	1.66333
-39.8951	-48.3983	1.73169
-39.8906	-46.2403	1.80005
-39.8835	-38.905	1.86841
-39.8775	-37.9282	1.93677
-39.8719	-33.2904	2.005127
-39.8658	-25.8234	2.07349
-39.8611	-22.6525	2.14185
-39.8543	-18.7009	2.21021
-39.8499	-14.2735	2.27856
-39.8431	-13.6757	2.34692
-39.8376	-14.3697	2.41528
-39.8326	-12.8136	2.48364
-39.8264	-7.79899	2.552002
-39.821	-5.492836	2.62036
-39.8147	-2.76579	2.68872
-39.8094	3.697073	2.75708
-39.8046	8.80183	2.82544
-39.7979	13.8732	2.8938
-39.7926	18.9821	2.96216
-39.78664	18.5203	3.03052
-39.7817	18.5373	3.098877
-39.7748	22.2213	3.16724
-39.7697	27.6623	3.2356
-39.76458	26.8118	3.30396
-39.7579	31.6949	3.37231
-39.7524	34.2324	3.44067
-39.747	41.8574	3.50903
-39.7407	46.3232	3.57739
-39.7362	50.4894	3.645752
-39.7295	52.2497	3.71411
-39.7234	53.6338	3.78247
-39.7188	57.973	3.85083
-39.7126	60.9432	3.91919
-39.7075	59.9178	3.98755
-39.7002	64.935	4.05591
-39.69521	68.2726	4.12427
-39.6897	72.0883	4.192627
-39.6836	77.4411	4.26099
-39.6783	81.79	4.32935
-39.6725	84.2992	4.39771
-39.667	87.7613	4.46606
-39.6618	93.4656	4.53442
-39.656	94.1852	4.60278
-39.6498	96.0792	4.67114
-39.6437	97.4242	4.739502
-39.6384	100.021	4.80786
-39.633	102.79	4.87622
-39.6269	110.215	4.94458
-39.6219	113.848	5.01294
-39.61639	112.701	5.0813
-39.6104	119.014	5.14966
-39.6047	126.727	5.21802
-39.5989	124.397	5.286377
-39.5932	127.579	5.35474
-39.5877	131.54	5.4231
-39.5824	130.031	5.49146
-39.5772	133.719	5.55981
-39.5702	138.549	5.62817
-39.56448	141.925	5.69653
-39.5582	144.838	5.76489
-39.5526	150.23	5.833252
-39.5479	159.348	5.90161
-39.5424	158.677	5.96997
-39.5372	159.835	6.03833
-39.52985	164.533	6.10669
-39.52483	164.413	6.17505
-39.5195	165.793	6.24341
-39.5146	170.287	6.31177
-39.5082	171.837	6.380127
-39.50259	174.327	6.44849
-39.4963	181.555	6.51685
-39.4913	189.9137	6.58521
-39.4852	190.88	6.65356
-39.4793	193.41	6.72192
-39.4728	195.811	6.79028
-39.4673	195.893	6.85864
-39.4622	197.667	6.927002
-39.4572	200.332	6.99536
-39.4508	202.549	7.06372
-39.4458	205.978	7.13208
-39.4387	212.116	7.20044
-39.4331	219.169	7.2688
-39.4279	221.1815	7.33716
-39.4225	223.758	7.40552
-39.41745	228.337	7.473877
-39.4103	229.479	7.54224
-39.4059	229.908	7.6106
-39.39909	231.683	7.67896
-39.3938	230.593	7.74731
-39.3879	235.165	7.81567
-39.3827	241.672	7.88403
-39.3772	248.304	7.95239
-39.3712	251.922	8.020752
-39.3656	255.344	8.08911
-39.3595	257.02	8.15747
-39.354	260.364	8.22583
-39.3489	260.802	8.29419
-39.3439	261.543	8.36255
-39.33654	260.667	8.43091
-39.3316	265.196	8.49927
-39.3256	272.084	8.567627
-39.3202	275.2355	8.63599
-39.31411	282.055	8.70435
-39.3078	286.995	8.77271
-39.3027	287.956	8.84106
-39.2976	292.033	8.90942
-39.2914	293.564	8.97778
-39.28614	291.799	9.04614
-39.28043	289.286	9.114502
-39.2744	294.92	9.18286
-39.2691	300.233	9.25122
-39.2633	302.19	9.31958
-39.2571	308.053	9.38794
-39.2521	314.1561	9.4563
-39.2465	315.918	9.52466
-39.2398	319.338	9.59302
-39.2352	322.446	9.661377
-39.229	321.33	9.72974
-39.2231	317.884	9.7981
-39.217	323.535	9.86646
-39.2127	327.369	9.93481
-39.2067	329.785	10.0032
-39.2003	335.307	10.0715
-39.1955	342.0426	10.1399
-39.1886	344.291	10.2083
-39.1842	347.066	10.2766
-39.1785	350.906	10.345
-39.1726	349.897	10.41333
-39.166	349.097	10.4817
-39.1601	353.244	10.55
-39.1544	354.72	10.6184
-39.1485	357.163	10.6868
-39.1426	360.35	10.7551
-39.1381	366.868	10.8235
-39.1336	370.077	10.8918
-39.1283	373.062	10.9602
-39.1209	378.148	11.0286
-39.1147	376.457	11.0969
-39.1085	376.452	11.1653
-39.10397	380.514	11.2336
-39.0981	380.826	11.302
-39.0915	382.935	11.3704
-39.08588	385.564	11.4387
-39.081	390.3652	11.50708
-39.0753	397.019	11.5754
-39.0698	400.1618	11.6438
-39.0637	402.308	11.7122
-39.0587	403.262	11.7805
-39.0518	404.951	11.8489
-39.04668	407.608	11.9172
-39.03973	407.605	11.9856
-39.0358	408.4827	12.054
-39.0298	411.132	12.1223
-39.0243	413.9743	12.1907
-39.0187	418.323	12.259
-39.0132	424.0676	12.3274
-39.0077	425.717	12.3958
-39.0014	427.802	12.4641
-38.9954	429.86	12.5325
-38.9892	433.665	12.60083
-38.9839	434.106	12.6692
-38.9778	434.247	12.7375
-38.97282	435.463	12.8059
-38.9669	435.196	12.8743
-38.9618	441.916	12.9426
-38.9555	446.62	13.011
-38.9494	448.45	13.0793
-38.9444	448.679	13.1477
-38.9386	453.284	13.2161
-38.93251	456.939	13.2844
-38.9282	454.219	13.3528
-38.9216	456.438	13.4211
-38.9156	458.522	13.4895
-38.9101	457.0065	13.5579
-38.9049	460.836	13.6262
-38.8982	466.117	13.69458
-38.8936	467.524	13.7629
-38.8873	468.6803	13.8313
-38.8815	474.792	13.8997
-38.8751	476.503	13.968
-38.8699	476.63	14.0364
-38.864	476.771	14.1047
-38.8585	478.005	14.1731
-38.853	476.562	14.2415
-38.8483	478.281	14.3098
-38.8416	481.998	14.3782
-38.8361	482.953	14.4465
-38.8299	484.764	14.5149
-38.82478	490.541	14.5833
-38.81881	495.406	14.6516
-38.813	493.535	14.72
-38.8074	495.088	14.78833
-38.8017	495.708	14.8567
-38.7967	493.737	14.925
-38.7895	493.147	14.9934
-38.7836	496.9664	15.0618
-38.7787	495.74	15.1301
-38.7734	495.754	15.1985
-38.76685	504.605	15.2668
-38.762	508.146	15.3352
-38.7564	507.073	15.4036
-38.7503	507.1814	15.4719
-38.7447	507.712	15.5403
-38.7393	505.251	15.6086
-38.734	503.941	15.677
-38.7283	504.138	15.7454
-38.723	503.188	15.8137
-38.7164	504.536	15.88208
-38.7111	510.952	15.9504
-38.70541	512.612	16.0188
-38.7004	513.629	16.0872
-38.69331	515.566	16.1555
-38.6887	510.842	16.2239
-38.6825	511.682	16.2922
-38.6772	510.151	16.3606
-38.67046	507.734	16.429
-38.664	504.947	16.4973
-38.6596	508.221	16.5657
-38.65353	511.435	16.634
-38.6477	512.911	16.7024
-38.6418	515.297	16.7708
-38.6371	517.2384	16.8391
-38.6318	512.2641	16.9075
-38.6253	512.89	16.97583
-38.6205	512.452	17.0442
-38.614	506.924	17.1125
-38.6077	503.317	17.1809
-38.6015	505.082	17.2493
-38.5955	508.719	17.3176
-38.5908	508.868	17.386
-38.5854	510.634	17.4543
-38.58	515.952	17.5227
-38.574	511.293	17.5911
-38.5676	512.8045	17.6594
-38.5619	510.9393	17.7278
-38.5567	505.479	17.7961
-38.55159	501.324	17.8645
-38.54594	503.861	17.9329
-38.5393	506.359	18.0012
-38.5328	504.167	18.06958
-38.5278	507.476	18.1379
-38.5213	511.11	18.2063
-38.5164	509.595	18.2747
-38.5113	510.4866	18.343
-38.50452	510.359	18.4114
-38.5001	505.102	18.4797
-38.4948	501.007	18.5481
-38.4883	502.741	18.6165
-38.4829	503.453	18.6848
-38.4763	502.254	18.7532
-38.4706	503.824	18.8215
-38.4656	507.522	18.8899
-38.4597	507.073	18.9583
-38.45298	507.537	19.0266
-38.4488	508.655	19.095
[...]
-37.64756	492.07	28.7043
-37.64201	494.804	28.7727
-37.6376	494.017	28.8411
-37.6316	493.672	28.9094
-37.624	491.915	28.9778
-37.619	487.721	29.0461
-37.6125	484.189	29.1145
-37.60701	484.858	29.1829
-37.6034	488.369	29.2512
-37.5965	490.1	29.31958
-37.5912	489.342	29.3879
-37.5856	491.845	29.4563
-37.5791	493.02	29.5247
-37.57375	494.371	29.593
-37.5676	494.066	29.6614
-37.5623	488.724	29.7297
-37.5571	485.9646	29.7981
-37.5511	486.686	29.8665
-37.5441	486.283	29.9348
-37.53981	487.06	30.0032
-37.5335	488.7511	30.0715
-37.5272	490.91	30.1399
-37.5212	491.097	30.2083
-37.51635	494.259	30.2766
-37.511	491.451	30.345
-37.5062	488.803	30.41333
-37.4998	486.895	30.4817
-37.4942	486.756	30.55
-37.4889	484.875	30.6184
-37.4827	484.479	30.6868
-37.4763	487.39	30.7551
-37.4708	488.221	30.8235
-37.4658	489.183	30.8918
-37.4606	492.538	30.9602
-37.4535	491.994	31.0286
-37.44767	487.6355	31.0969
-37.4418	487.9259	31.1653
-37.4372	488.286	31.2336
-37.4301	484.726	31.302
-37.42585	483.396	31.3704
-37.4199	486.545	31.4387
-37.4146	486.483	31.50708
-37.4087	487.356	31.5754
-37.4029	491.399	31.6438
-37.3975	492.821	31.7122
-37.3926	487.764	31.7805
-37.3855	487.501	31.8489
-37.3804	491.578	31.9172
-37.3746	484.633	31.9856
-37.369	481.953	32.054
-37.36272	485.245	32.1223
-37.3579	483.451	32.1907
-37.3521	485.0174	32.259
-37.3462	489.833	32.3274
-37.3392	491.847	32.3958
-37.3328	488.112	32.4641
-37.3296	488.095	32.5325
-37.323	490.496	32.60083
-37.3169	486.234	32.6692
-37.3106	483.495	32.7375
-37.3053	483.734	32.8059
-37.3002	482.068	32.8743
-37.2948	484.927	32.9426
-37.2884	488.373	33.011
-37.2831	488.263	33.0793
-37.2765	488.326	33.1477
-37.2717	487.591	33.2161
-37.2656	488.675	33.2844
-37.2606	488.15	33.3528
-37.2538	484.682	33.4211
-37.2484	484.195	33.4895
-37.24268	482.471	33.5579
-37.2375	482.603	33.6262
-37.2311	484.76	33.69458
-37.2263	484.001	33.7629
-37.221	485.145	33.8313
-37.2155	487.144	33.8997
-37.2091	487.95	33.968
-37.2032	487.422	34.0364
-37.1981	484.902	34.1047
-37.1909	484.186	34.1731
-37.186	481.234	34.2415
-37.1807	483.677	34.3098
-37.1751	482.385	34.3782
-37.1694	480.322	34.4465
-37.1642	482.24	34.5149
-37.1594	486.251	34.5833
-37.152	486.653	34.6516
-37.1474	485.335	34.72
-37.1406	485.619	34.78833
-37.1342	482.179	34.8567
-37.129	479.785	34.925
-37.1233	479.521	34.9934
-37.1174	480.331	35.0618
-37.1116	476.3396	35.1301
-37.106	477.917	35.1985
-37.1	484.515	35.2668
-37.0942	482.538	35.3352
-37.08952	481.151	35.4036
-37.0831	484.455	35.4719
-37.0768	479.905	35.5403
-37.0719	478.497	35.6086
-37.0668	475.32	35.677
-37.0606	474.466	35.7454
-37.0554	470.261	35.8137
-37.0496	469.031	35.88208
-37.0433	475.275	35.9504
-37.0381	471.521	36.0188
-37.0321	465.243	36.0872
-37.0246	-41.11536	36.1555
-37.021	-39.7209	36.2239
-37.0149	-41.7294	36.2922
-37.0098	-43.9408	36.3606
-37.0033	-44.2466	36.429
-36.9978	-47.1111	36.4973
-36.9923	-47.6074	36.5657
-36.9874	-41.5922	36.634
-36.981	-40.8864	36.7024
-36.975	-40.97118	36.7708
-36.96973	-38.577	36.8391
-36.9643	-38.0393	36.9075
-36.9579	-39.7016	36.97583
-36.953	-42.49678	37.0442
-36.94722	-43.42503	37.1125
-36.9399	-47.81181	37.1809
-36.9346	-46.7015	37.2493
-36.9298	-43.4451	37.3176
-36.9245	-42.3135	37.386
-36.9178	-41.0631	37.4543
-36.9125	-39.7192	37.5227
-36.9073	-39.5012	37.5911
-36.902	-37.6838	37.6594
-36.8956	-40.8944	37.7278
-36.8898	-44.5791	37.7961
-36.8832	-45.4022	37.8645
-36.8785	-44.2258	37.9329
-36.8726	-44.7939	38.0012
-36.8666	-45.0664	38.06958
-36.8612	-41.0704	38.1379
-36.8561	-39.4661	38.2063
-36.8505	-39.0243	38.2747
-36.845	-38.082	38.343
-36.8386	-38.22715	38.4114
-36.8337	-44.3602	38.4797
-36.8268	-46.15657	38.5481

File: 0.254_solid_dimension_typei_090_r(1).dat
MTS793|BTW|ENU|1|2|.|/|:|1|0|0|A

Data Header:			0.254_solid_dimension_typei_090_r0			Time:	20.0374	s	4/15/2019 2:12:03 PM
Data Acquisition:	Timed
Station Name:	ft40.cfg
Test File Name:	monotonic_0.2540_typei_solid_090_dimension.tst
Displacement	Force	Running Time
mm	N	s
9.97034	-108.047	0.041748
9.97156	-100.191	0.110107
9.977397	-92.6452	0.1784668
9.9821	-89.9109	0.246826
9.98865	-88.5875	0.315186
9.99306	-90.7124	0.383545
10.0004	-92.8703	0.4519043
10.005	-95.214	0.520264
10.0108	-91.6739	0.588623
10.0165	-83.6875	0.656982
10.0214	-78.0801	0.7253418
10.02827	-66.5463	0.793701
10.0329	-55.0906	0.862061
10.0398	-50.0548	0.93042
10.0452	-46.8725	0.9987793
10.0509	-45.1614	1.06714
10.057	-49.8519	1.135498
10.0631	-54.72411	1.20386
10.0675	-51.8622	1.27222
10.0736	-47.22937	1.34058
10.0786	-42.7101	1.40894
10.0851	-32.2987	1.47729
10.0899	-21.3184	1.54565
10.0969	-13.3542	1.61401
10.1023	-4.74087	1.682373
10.1075	-1.62144	1.75073
10.1125	-4.5096	1.81909
10.1199	-10.3548	1.88745
10.1239	-8.08387	1.95581
10.1302	-8.54531	2.02417
10.1356	-5.77282	2.09253
10.1413	3.34375	2.16089
10.1475	14.8364	2.229248
10.1526	24.6594	2.29761
10.1584	35.0116	2.36597
10.1643	41.8743	2.43433
10.1701	39.1429	2.50269
10.1758	37.4571	2.57104
10.182	37.9695	2.6394
10.1863	36.3321	2.70776
10.1933	36.1773	2.776123
10.1985	43.367	2.84448
10.2052	52.3482	2.91284
10.21	60.61697	2.9812
10.2153	72.8235	3.04956
10.2215	80.8274	3.11792
10.2265	80.2207	3.18628
10.2335	82.4905	3.25464
10.239	85.4417	3.322998
10.2439	81.5498	3.39136
10.2501	79.0736	3.45972
10.2566	84.231	3.52808
10.2614	90.4191	3.59644
10.2677	100.606	3.66479
10.2736	111.822	3.73315
10.2784	121.005	3.80151
10.2841	125.038	3.869873
10.2908	127.176	3.93823
10.2965	131.8432	4.00659
10.3014	128.8	4.07495
10.307	123.597	4.14331
10.3134	126.828	4.21167
10.3179	129.363	4.28003
10.325	137.368	4.34839
10.3299	148.513	4.416748
10.3353	158.518	4.48511
10.3414	163.766	4.55347
10.348	171.67	4.62183
10.3521	177.003	4.69019
10.3588	175.064	4.75854
10.3639	171.445	4.8269
10.3697	170.082	4.89526
10.3754	170.87	4.963623
10.3802	176.4998	5.03198
10.3873	184.2576	5.10034
10.3923	193.8694	5.1687
10.3979	201.012	5.23706
10.4046	213.399	5.30542
10.41	221.347	5.37378
10.4157	220.198	5.44214
10.4215	218.963	5.510498
10.4276	215.387	5.57886
10.43259	215.242	5.64722
10.4377	216.661	5.71558
10.44354	222.713	5.78394
10.4499	229.6022	5.85229
10.4557	239.0676	5.92065
10.4624	253.158	5.98901
10.46679	261.071	6.057373
10.4732	266.155	6.12573
10.4784	264.796	6.19409
10.484	262.736	6.26245
10.4901	260.727	6.33081
10.49638	259.912	6.39917
10.5005	261.329	6.46753
10.507	266.331	6.53589
10.5117	275.857	6.604248
10.5185	289.995	6.67261
10.5245	299.877	6.74097
10.5289	305.534	6.80933
10.5359	310.266	6.87769
10.541	308.719	6.94604
10.5472	307.757	7.0144
10.55235	306.389	7.08276
10.5579	305.361	7.151123
10.5624	304.289	7.21948
10.5698	312.224	7.28784
10.5752	325.761	7.3562
10.5805	333.5022	7.42456
10.5872	344.224	7.49292
10.5916	352.679	7.56128
10.5985	352.587	7.62964
10.604	351.83	7.697998
10.6089	351.514	7.76636
10.6149	346.044	7.83472
10.6213	344.799	7.90308
10.62621	351.469	7.97144
10.6317	361.996	8.03979
10.6382	368.832	8.10815
10.6441	380.718	8.17651
10.6489	391.146	8.244873
10.65485	393.841	8.31323
10.6609	397.779	8.38159
10.6658	398.694	8.44995
10.67265	393.007	8.51831
10.6765	388.3147	8.58667
10.6831	392.041	8.65503
10.6892	399.203	8.72339
10.69513	405.185	8.791748
10.7017	416.387	8.86011
10.7054	427.6337	8.92847
10.7113	433.306	8.99683
10.7182	440.318	9.06519
10.7227	441.952	9.13354
10.7296	439.942	9.2019
10.7359	432.92	9.27026
10.7409	435.02	9.338623
10.7463	438.4809	9.40698
10.7518	440.751	9.47534
10.7564	449.589	9.5437
10.765	462.56	9.61206
10.7683	469.519	9.68042
10.7737	477.543	9.74878
10.78	484.635	9.81714
10.7863	481.992	9.885498
10.793	480.5817	9.95386
10.7976	483.145	10.0222
10.8036	481.652	10.0906
10.8087	480.759	10.1589
10.8148	487.32	10.2273
10.8196	494.26	10.2957
10.8264	503.8858	10.364
10.8317	513.723	10.4324
10.8383	520.834	10.5007
10.8434	523.246	10.5691
10.84775	523.149	10.6375
10.8543	526.142	10.7058
10.8609	524.077	10.77417
10.8658	523.5235	10.8425
10.8715	525.147	10.9109
10.8783	529.537	10.9792
10.8829	539.2959	11.0476
10.8885	548.426	11.116
10.8952	558.178	11.1843
10.8997	560.995	11.2527
10.9057	566.3374	11.321
10.9117	567.657	11.3894
10.9166	566.067	11.4578
10.9234	565.536	11.5261
10.9287	564.385	11.5945
10.9337	567.911	11.6628
10.93893	574.876	11.7312
10.9449	583.7981	11.7996
10.9518	591.054	11.86792
10.957	597.456	11.9363
10.9627	604.933	12.0046
10.968	609.111	12.073
10.9743	608.3764	12.1414
10.9794	605.959	12.2097
10.9847	604.768	12.2781
10.9913	605.08	12.3464
10.996	610.501	12.4148
11.0023	617.795	12.4832
11.0078	624.0412	12.5515
11.0138	631.917	12.6199
11.0195	642.382	12.6882
11.0262	648.638	12.7566
11.0316	648.39	12.825
11.037	648.243	12.8933
11.0424	646.444	12.96167
11.0482	643.268	13.03
11.0528	646.701	13.0984
11.0597	652.691	13.1667
11.0648	657.446	13.2351
11.0706	664.569	13.3035
11.0759	679.4549	13.3718
11.08226	686.4801	13.4402
11.0875	686.616	13.5085
11.0944	688.736	13.5769
11.0985	687.538	13.6453
11.1056	682.944	13.7136
11.1109	683.809	13.782
11.1167	689.079	13.8503
11.1221	690.151	13.9187
11.12813	697.265	13.9871
11.13292	711.064	14.05542
11.1392	720.461	14.1238
11.1445	723.723	14.1921
11.1507	728.313	14.2605
11.1566	727.541	14.3289
11.16208	722.541	14.3972
11.167	722.9	14.4656
11.1737	722.238	14.5339
11.1798	724.45	14.6023
11.184	730.508	14.6707
11.1904	743.389	14.739
11.1963	752.3797	14.8074
11.2029	757.426	14.8757
11.208	764.074	14.9441
11.2133	765.049	15.0125
11.2186	762.618	15.0808
11.2252	760.176	15.14917
11.2304	760.276	15.2175
11.2351	757.6	15.2859
11.2408	761.097	15.3542
11.2474	774.751	15.4226
11.2536	783.864	15.491
11.2584	792.012	15.5593
11.2643	798.924	15.6277
11.2701	801.959	15.696
11.2759	801.25	15.7644
11.282	799.224	15.8328
11.2875	797.244	15.9011
11.292	792.517	15.9695
11.2987	795.899	16.0378
11.3042	805.891	16.1062
11.31058	812.43	16.1746
11.3155	821.139	16.24292
11.3207	830.177	16.3113
11.3272	835.599	16.3796
11.3329	836.712	16.448
11.3383	835.268	16.5164
11.3449	832.13	16.5847
11.3501	828.142	16.6531
11.3555	828.451	16.7214
11.3611	835.061	16.7898
11.367	840.329	16.8582
11.3727	848.57	16.9265
11.3792	858.548	16.9949
11.3851	865.003	17.0632
11.3896	869.747	17.1316
11.3958	869.556	17.2
11.4013	865.66	17.2683
11.4073	861.291	17.33667
11.4131	862.614	17.405
11.4188	863.51	17.4734
11.424	867.431	17.5417
11.4294	875.269	17.6101
11.4359	884.591	17.6785
11.4407	891.067	17.7468
11.4473	899.6889	17.8152
11.4527	902.588	17.8835
11.4588	897.005	17.9519
11.4644	893.461	18.0203
11.4702	893.1991	18.0886
11.4755	892.96	18.157
11.4812	894.963	18.2253
11.4877	901.9837	18.2937
11.49231	909.587	18.3621
11.4972	917.46	18.43042
11.5035	924.972	18.4988
11.5096	929.428	18.5671
11.5146	925.405	18.6355
11.521	922.836	18.7039
11.5264	924.682	18.7722
11.5323	918.984	18.8406
11.538	919.135	18.9089
11.5439	923.502	18.9773
11.5498	929.483	19.0457
11.5547	937.95	19.114
11.5608	946.534	19.1824
11.5667	952.863	19.2507
11.5726	950.705	19.3191
11.5776	948.873	19.3875
11.58395	950.3299	19.4558
11.58934	945.988	19.52417
11.5952	940.913	19.5925
11.6012	944.272	19.6609
11.607	946.518	19.7292
11.6132	953.028	19.7976
11.6189	963.908	19.866
11.6241	969.8045	19.9343
[...]
13.3376	964.96	40.491
13.33874	967.219	40.5105
13.3404	947.969	40.53
13.3413	964.465	40.5496
13.3444	969.466	40.5691
13.3454	950.02	40.5886
13.3469	951.674	40.6082
13.3484	970.807	40.6277
13.35014	950.023	40.6472
13.3516	950.724	40.6667
13.3533	965.331	40.6863
13.354	951.429	40.7058
13.356	939.58	40.7253
13.3586	960.382	40.7449
13.3593	946.307	40.7644
13.3666	22.852	40.7839
13.3677	-41.0268	40.8035
13.3665	-37.1438	40.823
13.3683	-53.54546	40.8425
13.3698	-41.5312	40.8621
13.37063	-34.7037	40.8816
13.3726	-51.502	40.9011
13.3735	-45.3585	40.9207
13.37536	-33.2285	40.9402
13.3778	-48.5516	40.9597
13.3786	-51.2236	40.9792
13.3805	-31.1084	40.9988
13.3822	-42.0666	41.0183
13.38303	-53.667	41.0378
13.38622	-37.8979	41.0574
13.3867	-38.3276	41.0769
13.3879	-54.5002	41.0964
13.3907	-37.3458	41.116
13.391	-34.7144	41.1355
13.39286	-52.3351	41.155
13.3945	-46.3169	41.1746
13.3951	-30.83449	41.1941
13.3978	-53.0912	41.2136
13.3997	-46.7568	41.2332
13.4008	-30.3928	41.2527
13.4021	-45.1132	41.2722
13.4044	-54.3557	41.2917
13.406	-32.0427	41.3113
13.4074	-43.409	41.3308
13.4095	-51.8419	41.3503
13.4098	-33.83276	41.3699
13.4122	-40.207	41.3894
13.41369	-56.5247	41.4089
13.4149	-36.596	41.4285
13.4173	-34.94347	41.448
13.418	-54.5894	41.4675
13.4211	-43.108	41.4871
13.4221	-33.3816	41.5066
13.4231	-51.3437	41.5261
13.4261	-46.5466	41.5457
13.426	-32.4071	41.5652
13.4279	-47.8667	41.5847
13.429	-48.9625	41.6042
13.43199	-34.6767	41.6238
13.4332	-45.0679	41.6433
13.4347	-53.1748	41.6628
13.4367	-34.003	41.6824
13.4383	-39.6137	41.7019
13.4401	-50.2448	41.7214
13.44148	-41.7492	41.741
13.4432	-34.0356	41.7605
13.4448	-52.4521	41.78
13.4464	-40.31118	41.7996
13.4482	-32.4094	41.8191
13.4493	-51.4387	41.8386
13.4518	-49.0866	41.8582
13.4534	-29.9058	41.8777
13.4548	-49.0343	41.8972
13.4568	-48.0462	41.9167
13.4577	-32.4834	41.9363
13.4589	-41.2973	41.9558
13.4616	-55.8412	41.9753
13.4621	-33.3762	41.9949
13.4641	-40.4398	42.0144
13.4662	-52.4337	42.0339
13.4672	-34.7775	42.0535
13.4694	-36.6602	42.073
13.4701	-56.1327	42.0925
13.4722	-41.0525	42.1121
13.4743	-31.7692	42.1316
13.4752	-51.6342	42.1511
13.4775	-46.1112	42.1707
13.4789	-33.6483	42.1902
13.48001	-49.4966	42.2097
13.482	-48.0471	42.2292
13.4836	-33.5351	42.2488
13.4856	-45.3925	42.2683
13.4871	-49.3823	42.2878
13.4898	-35.4028	42.3074
13.4891	-39.8592	42.3269
13.4919	-54.3628	42.3464
13.4934	-35.6463	42.366
13.495	-35.4562	42.3855
13.4966	-51.3877	42.405
13.4973	-44.3372	42.4246
13.4995	-33.1734	42.4441
13.50174	-50.6295	42.4636
13.5035	-42.1221	42.4832
13.505	-30.8273	42.5027
13.5058	-47.0629	42.5222
13.5083	-53.0681	42.5417
13.5096	-30.1346	42.5613
13.5112	-42.9779	42.5808
13.5129	-51.9294	42.6003
13.5146	-32.8212	42.6199
13.5158	-39.2162	42.6394
13.5173	-55.7482	42.6589
13.5201	-35.9988	42.6785
13.522	-36.84594	42.698
13.5223	-52.8717	42.7175
13.5255	-40.2921	42.7371
13.5268	-33.0827	42.7566
13.5283	-53.7918	42.7761
13.52949	-43.736	42.7957
13.5313	-31.9185	42.8152
13.5335	-48.2543	42.8347
13.53436	-48.6363	42.8542
13.5353	-34.4501	42.8738
13.537	-45.9386	42.8933
13.5392	-52.20388	42.9128
13.5403	-34.0193	42.9324
13.5429	-43.0346	42.9519
13.5438	-52.0671	42.9714
13.5455	-40.5207	42.991
13.54784	-36.4	43.0105
13.5491	-53.6642	43.03
13.5498	-41.61092	43.0496
13.552	-33.6644	43.0691
13.5537	-49.6042	43.0886
13.5556	-48.7775	43.1082
13.5569	-31.6364	43.1277
13.559	-50.0206	43.1472
13.5612	-46.8115	43.1667
13.5628	-33.1235	43.1863
13.5638	-44.1187	43.2058
13.5645	-54.1022	43.2253
13.5657	-31.8781	43.2449
13.5687	-40.0332	43.2644
13.57	-53.22625	43.2839
13.571	-38.0741	43.3035
13.573	-36.1232	43.323
13.5753	-53.7653	43.3425
13.57626	-38.7706	43.3621