Folder: Stress_Strain_Analysis_Tools/data/processed_data_files/tensile (part 15)

File: 0.254_hd_uprint_typei_090_r(2).dat
MTS793|BTW|ENU|1|2|.|/|:|1|0|0|A

Data Header:			0.254_hd_uprint_typei_090_r0			Time:	20.0261	s	4/15/2019 3:51:04 PM
Data Acquisition:	Timed
Station Name:	ft40.cfg
Test File Name:	monotonic_0.2540_typei_hd_090_uprint.tst
Displacement	Force	Running Time
mm	N	s
9.98113	-209.461	0.0310059
9.98127	-210.524	0.0993652
9.98648	-208.624	0.167725
9.99119	-205.373	0.236084
9.99895	-200.899	0.304443
10.0038	-198.54	0.372803
10.0083	-200.652	0.441162
10.015	-196.641	0.509521
10.0211	-195.109	0.577881
10.0259	-195.858	0.64624
10.0322	-199.953	0.7146
10.0368	-198.447	0.782959
10.04353	-199.261	0.851318
10.0489	-198.888	0.919678
10.0538	-194.015	0.988037
10.06	-188.025	1.0564
10.0659	-187.669	1.12476
10.0729	-188.008	1.19312
10.07764	-182.829	1.26147
10.0833	-181.2397	1.329834
10.0891	-188.417	1.39819
10.0932	-186.74	1.46655
10.1009	-186.023	1.53491
10.1063	-186.731	1.60327
10.11167	-184.303	1.67163
10.118	-178.946	1.73999
10.1236	-175.61	1.80835
10.1291	-175.958	1.876709
10.1342	-170.776	1.94507
10.1399	-166.248	2.01343
10.1461	-170.43	2.08179
10.151	-170.779	2.15015
10.15707	-171.572	2.21851
10.1631	-169.515	2.28687
10.1681	-168.6181	2.35522
10.1755	-165.557	2.423584
10.1802	-160.913	2.49194
10.1866	-159.238	2.5603
10.1906	-155.712	2.62866
10.1971	-149.336	2.69702
10.2022	-150.636	2.76538
10.209	-150.196	2.83374
10.21416	-152.827	2.9021
10.22	-153.039	2.970459
10.2254	-149.028	3.03882
10.2312	-147.398	3.10718
10.2364	-144.707	3.17554
10.2433	-141.434	3.2439
10.2496	-135.963	3.31226
10.2552	-129.031	3.38062
10.2599	-128.836	3.44897
10.265	-127.3849	3.517334
10.27	-126.594	3.58569
10.2771	-127.7011	3.65405
10.2821	-128.529	3.72241
10.2875	-123.7783	3.79077
10.2938	-119.175	3.85913
10.2996	-120.402	3.92749
10.305	-114.645	3.99585
10.311	-104.499	4.064209
10.3167	-102.826	4.13257
10.3218	-103.108	4.20093
10.3279	-98.221	4.26929
10.3331	-100.372	4.33765
10.3392	-101.278	4.40601
10.34553	-97.2396	4.47437
10.3509	-95.4659	4.54272
10.3566	-92.77	4.611084
10.3623	-88.2661	4.67944
10.3676	-79.7972	4.7478
10.3746	-73.63485	4.81616
10.379	-74.3485	4.88452
10.3854	-71.4767	4.95288
10.3915	-67.5155	5.02124
10.3966	-70.0637	5.0896
10.4025	-69.3863	5.157959
10.4084	-63.0165	5.22632
10.4144	-62.9609	5.29468
10.4191	-60.5504	5.36304
10.42437	-51.4504	5.4314
10.4305	-44.0746	5.49976
10.4364	-41.5058	5.56812
10.442	-38.64521	5.63647
10.4468	-35.43177	5.704834
10.454	-36.509	5.77319
10.4594	-35.152	5.84155
10.4654	-34.005	5.90991
10.4705	-33.0268	5.97827
10.4767	-30.1014	6.04663
10.4816	-23.1535	6.11499
10.4875	-15.7407	6.18335
10.4935	-10.80017	6.251709
10.4995	-7.65689	6.32007
10.504	-4.1338	6.38843
10.5106	-4.02292	6.45679
10.5155	-1.23886	6.52515
10.52127	0.449629	6.59351
10.5275	-1.40601	6.66187
10.5326	1.16142	6.73022
10.539	8.05046	6.798584
10.54431	16.9011	6.86694
10.5499	21.5469	6.9353
10.5558	26.68664	7.00366
10.56071	31.3004	7.07202
10.567	31.2449	7.14038
10.5731	33.4119	7.20874
10.5783	36.1626	7.2771
10.5841	35.2876	7.345459
10.5895	33.4496	7.41382
10.5961	40.2221	7.48218
10.6015	48.5111	7.55054
10.6065	52.6672	7.6189
10.6123	58.8719	7.68726
10.6191	65.4204	7.75562
10.6242	66.84742	7.82397
10.6296	68.0492	7.892334
10.6358	69.3657	7.96069
10.6413	71.9934	8.02905
10.6471	68.4851	8.09741
10.6516	73.4648	8.16577
10.6583	81.8089	8.23413
10.6638	85.7298	8.30249
10.6703	89.1223	8.37085
10.6763	95.7223	8.439209
10.6806	102.2008	8.50757
10.6883	104.153	8.57593
10.6924	104.744	8.64429
10.6981	107.9674	8.71265
10.7038	107.408	8.78101
10.7092	107.012	8.84937
10.715	110.787	8.91772
10.7211	117.397	8.986084
10.7271	122.017	9.05444
10.73238	130.462	9.1228
10.7388	135.587	9.19116
10.7441	139.026	9.25952
10.7498	142.577	9.32788
10.7552	140.57	9.39624
10.7615	140.747	9.4646
10.766	140.046	9.532959
10.7724	145.4122	9.60132
10.7774	149.604	9.66968
10.7834	154.759	9.73804
10.7891	161.302	9.8064
10.796	167.073	9.87476
10.8015	170.738	9.94312
10.80684	176.64	10.0115
10.8123	178.449	10.0798
10.8171	175.695	10.1482
10.8227	176.202	10.2166
10.8293	180.633	10.2849
10.8345	183.57	10.3533
10.84065	185.535	10.4216
10.8457	193.434	10.48999
10.8517	201.09	10.55835
10.8582	203.408	10.6267
10.8619	208.754	10.6951
10.8692	212.532	10.7634
10.87576	212.298	10.8318
10.881	210.7757	10.9001
10.8868	214.495	10.9685
10.8919	218.597	11.0369
10.8971	219.451	11.1052
10.9033	222.601	11.1736
10.9089	232.065	11.2419
10.9148	236.121	11.3103
10.9204	243.164	11.3787
10.92565	249.959	11.447
10.9313	249.512	11.5154
10.9376	247.668	11.58374
10.9436	247.032	11.6521
10.94881	252.44	11.7205
10.95474	253.066	11.7888
10.9598	255.597	11.8572
10.9654	263.296	11.9255
10.9717	270.248	11.9939
10.9773	275.711	12.0623
10.98331	282.259	12.1306
10.988	286.401	12.199
10.9936	282.183	12.2673
11.0005	282.712	12.3357
11.0066	286.93	12.4041
11.0117	287.412	12.4724
11.018	289.316	12.5408
11.02248	294.653	12.6091
11.02769	299.41	12.67749
11.034	307.57	12.74585
11.0393	314.408	12.8142
11.0457	318.875	12.8826
11.05247	318.422	12.9509
11.0573	316.465	13.0193
11.0624	321.935	13.0876
11.0682	320.642	13.156
11.0743	323.238	13.2244
11.0798	328.099	13.2927
11.08567	330.694	13.3611
11.0917	337.563	13.4294
11.0965	345.802	13.4978
11.1023	349.869	13.5662
11.1085	351.79	13.6345
11.1144	353.576	13.7029
11.11922	358.192	13.77124
11.1248	356.365	13.8396
11.1316	353.889	13.908
11.1368	359.008	13.9763
11.1425	364.36	14.0447
11.1487	367.269	14.113
11.15357	373.234	14.1814
11.16	381.76	14.2498
11.1655	383.502	14.3181
11.1708	383.391	14.3865
11.1768	389.002	14.4548
11.1811	391.634	14.5232
11.18792	388.704	14.5916
11.1934	391.631	14.6599
11.1992	394.436	14.7283
11.2057	397.273	14.7966
11.211	404.338	14.86499
11.2169	412.7352	14.93335
11.2226	416.789	15.0017
11.2272	417.416	15.0701
11.2333	422.7168	15.1384
11.2392	426.952	15.2068
11.2459	423.104	15.2751
11.2504	424.06	15.3435
11.2563	427.9339	15.4119
11.2619	431.522	15.4802
11.26809	437.016	15.5486
11.273	440.815	15.6169
11.2795	447.986	15.6853
11.28409	450.125	15.7537
11.29	454.157	15.822
11.2961	459.322	15.8904
11.3016	456.662	15.95874
11.3068	457.844	16.0271
11.3122	458.535	16.0955
11.3194	458.289	16.1638
11.3249	465.93	16.2322
11.3312	469.65	16.3005
11.33606	475.732	16.3689
11.3422	480.4278	16.4373
11.3476	485.914	16.5056
11.3532	490.629	16.574
11.3593	489.622	16.6423
11.3646	491.246	16.7107
11.3702	492.905	16.7791
11.3763	490.658	16.8474
11.381	495.772	16.9158
11.3871	501.118	16.9841
11.3934	506.046	17.05249
11.3989	508.956	17.12085
11.4031	514.539	17.1892
11.4101	521.654	17.2576
11.4157	522.015	17.3259
11.4217	522.78	17.3943
11.4273	524.5719	17.4626
11.433	524.159	17.531
11.4383	525.369	17.5994
11.4438	529.472	17.6677
11.4505	534.632	17.7361
11.4553	537.035	17.8044
11.4616	543.527	17.8728
11.4668	552.627	17.9412
11.4734	553.309	18.0095
11.4777	552.525	18.0779
11.48403	554.1756	18.14624
11.4906	554.3504	18.2146
11.496	555.429	18.283
11.5011	558.024	18.3513
11.5075	563.907	18.4197
11.5122	565.547	18.488
11.518	570.504	18.5564
11.5247	578.0047	18.6248
11.5301	585.185	18.6931
11.5362	585.49	18.7615
11.5411	585.972	18.8298
11.5466	586.675	18.8982
11.55363	586.607	18.9666
11.5585	586.448	19.0349
11.5646	589.713	19.1033
11.5696	592.624	19.1716
11.5749	595.948	19.23999
11.5815	604.461	19.30835
11.5872	610.754	19.3767
11.5925	613.7926	19.4451
11.5988	615.465	19.5134
11.6035	615.741	19.5818
11.6086	614.244	19.6501
11.615	617.24	19.7185
11.6214	618.2666	19.7869
[...]
12.4047	869.912	29.1912
12.4101	870.915	29.2595
12.4156	870.239	29.3279
12.4214	859.869	29.39624
12.4274	859.172	29.4646
12.4337	861.062	29.533
12.4387	858.297	29.6013
12.4448	855.678	29.6697
12.4492	861.486	29.738
12.456	864.091	29.8064
12.4607	865.036	29.8748
12.4666	868.42	29.9431
12.4723	867.823	30.0115
12.4794	862.4577	30.0798
12.4842	858.843	30.1482
12.4906	860.106	30.2166
12.4954	857.558	30.2849
12.5005	854.734	30.3533
12.5064	856.484	30.4216
12.5136	857.41	30.48999
12.5186	860.653	30.55835
12.5255	864.203	30.6267
12.53	865.336	30.6951
12.5358	861.223	30.7634
12.5424	856.553	30.8318
12.5466	856.761	30.9001
12.55235	854.0072	30.9685
12.5577	848.346	31.0369
12.56365	850.868	31.1052
12.5698	852.1701	31.1736
12.57552	854.808	31.2419
12.5808	859.206	31.3103
12.5869	861.022	31.3787
12.5915	856.529	31.447
12.5974	854.554	31.5154
12.60338	852.974	31.58374
12.6096	849.775	31.6521
12.6155	845.98	31.7205
12.6206	846.621	31.7888
12.62723	846.184	31.8572
12.63268	847.209	31.9255
12.6387	851.4964	31.9939
12.6436	854.842	32.0623
12.64861	853.326	32.1306
12.6549	849.272	32.199
12.6607	852.6015	32.2673
12.6675	849.771	32.3357
12.6718	842.669	32.4041
12.6776	841.857	32.4724
12.6831	841.708	32.5408
12.69	842.053	32.6091
12.6956	844.783	32.67749
12.7003	850.5553	32.74585
12.707	849.287	32.8142
12.7131	846.59	32.8826
12.7176	847.563	32.9509
12.7239	848.1087	33.0193
12.7295	842.807	33.0876
12.7356	838.181	33.156
12.7398	840.528	33.2244
12.7465	837.846	33.2927
12.7518	840.4223	33.3611
12.7583	842.595	33.4294
12.7629	845.238	33.4978
12.7684	843.494	33.5662
12.7746	845.465	33.6345
12.77985	845.678	33.7029
12.7856	843.613	33.77124
12.79242	837.597	33.8396
12.797	836.3551	33.908
12.8023	834.615	33.9763
12.8087	836.5	34.0447
12.8147	839.286	34.113
12.819	840.241	34.1814
12.8273	840.717	34.2498
12.8313	842.3678	34.3181
12.8375	844.976	34.3865
12.8422	841.056	34.4548
12.8485	839.163	34.5232
12.854	835.087	34.5916
12.8611	832.247	34.6599
12.8663	833.21	34.7283
12.8722	835.5874	34.7966
12.8772	834.534	34.86499
12.8828	837.645	34.93335
12.8881	840.202	35.0017
12.8942	843.445	35.0701
12.9	839.8186	35.1384
12.906	837.9397	35.2068
12.91179	838.558	35.2751
12.9182	832.353	35.3435
12.9226	831.023	35.4119
12.9286	831.717	35.4802
12.934	832.316	35.5486
12.9403	831.278	35.6169
12.9465	835.83	35.6853
12.9522	841.213	35.7537
12.9571	840.747	35.822
12.9616	837.269	35.8904
12.9691	835.297	35.95874
12.9737	832.209	36.0271
12.97902	826.511	36.0955
12.985	828.19	36.1638
12.9911	830.7453	36.2322
12.9979	829.462	36.3005
13.0028	829.889	36.3689
13.0089	836.379	36.4373
13.014	837.425	36.5056
13.0191	832.601	36.574
13.0251	834.53	36.6423
13.0303	830.035	36.7107
13.0361	823.65	36.7791
13.0423	821.299	36.8474
13.0486	820.237	36.9158
13.054	814.788	36.9841
13.064	-46.0956	37.05249
13.0671	-44.3849	37.12085
13.0713	-39.9333	37.1892
13.0773	-40.6338	37.2576
13.0829	-42.4939	37.3259
13.0882	-44.5717	37.3943
13.095	-46.21838	37.4626
13.0995	-48.0822	37.531
13.1049	-50.4557	37.5994
13.112	-51.0407	37.6677
13.116	-50.4038	37.7361
13.1224	-44.8582	37.8044
13.129	-41.3937	37.8728
13.1336	-41.6993	37.9412
13.1398	-39.5532	38.0095
13.1458	-41.8926	38.0779
13.1509	-46.304	38.14624
13.1564	-46.1777	38.2146
13.1628	-46.9733	38.283
13.169	-51.9887	38.3513
13.1743	-52.8273	38.4197
13.1807	-48.8346	38.488
13.1851	-45.0369	38.5564
13.191	-42.5834	38.6248
13.1962	-40.9953	38.6931
13.2014	-39.4602	38.7615
13.2077	-43.624	38.8298
13.2131	-44.12159	38.8982
13.21896	-47.5478	38.9666
13.2254	-49.7529	39.0349
13.2308	-55.4896	39.1033
13.2361	-51.2105	39.1716
13.2423	-45.2351	39.23999
13.2477	-46.098	39.30835
13.254	-41.4626	39.3767
13.2552	-44.4696	39.39624

File: 0.254_hd_uprint_typei_090_r(3).dat
MTS793|BTW|ENU|1|2|.|/|:|1|0|0|A

Data Header:			0.254_hd_uprint_typei_090_r0			Time:	20.0173	s	4/15/2019 3:52:46 PM
Data Acquisition:	Timed
Station Name:	ft40.cfg
Test File Name:	monotonic_0.2540_typei_hd_090_uprint.tst
Displacement	Force	Running Time
mm	N	s
9.980257	-186.039	0.0219727
9.9834	-184.064	0.090332
9.98974	-183.036	0.158691
9.99486	-179.813	0.227051
10.0006	-180.2885	0.29541
10.0058	-184.99	0.36377
10.0122	-181.101	0.432129
10.0183	-178.374	0.500488
10.0234	-178.0435	0.568848
10.0287	-176.678	0.637207
10.0337	-168.839	0.705566
10.0412	-161.368	0.773926
10.0461	-161.23	0.842285
10.05085	-156.832	0.910645
10.0579	-155.125	0.979004
10.0634	-157.203	1.04736
10.0691	-158.353	1.11572
10.0752	-154.069	1.184082
10.0801	-155.843	1.25244
10.0854	-153.92	1.3208
10.0907	-144.218	1.38916
10.097	-135.836	1.45752
10.1028	-135.699	1.52588
10.1091	-131.972	1.59424
10.1152	-126.304	1.6626
10.1202	-127.808	1.730957
10.1261	-127.687	1.79932
10.1313	-125.769	1.86768
10.1376	-126.381	1.93604
10.1424	-125.598	2.00439
10.1482	-118.218	2.07275
10.1534	-110.1	2.14111
10.1587	-107.694	2.20947
10.1648	-102.408	2.277832
10.1727	-97.5484	2.34619
10.1776	-97.1779	2.41455
10.1832	-94.2874	2.48291
10.1884	-93.6128	2.55127
10.1943	-95.2857	2.61963
10.1996	-95.1075	2.68799
10.2051	-89.2132	2.75635
10.2119	-82.03054	2.824707
10.21777	-78.3917	2.89307
10.2221	-71.1619	2.96143
10.2285	-65.6124	3.02979
10.2339	-66.381	3.09814
10.2402	-63.5414	3.1665
10.2448	-61.8412	3.23486
10.251	-64.12249	3.30322
10.2566	-61.6258	3.371582
10.262	-57.8987	3.43994
10.269	-53.061	3.5083
10.2741	-49.8367	3.57666
10.2792	-41.7319	3.64502
10.2858	-36.5931	3.71338
10.29072	-34.5457	3.78174
10.2962	-29.05407	3.8501
10.3016	-27.2479	3.918457
10.3082	-29.5734	3.98682
10.31296	-30.2715	4.05518
10.3192	-25.4218	4.12354
10.3255	-21.2884	4.19189
10.32967	-19.5372	4.26025
10.3364	-11.1791	4.32861
10.3418	-5.45267	4.39697
10.3477	-1.68839	4.465332
10.3541	4.24436	4.53369
10.3584	6.76263	4.60205
10.3652	5.09827	4.67041
10.3708	2.10589	4.73877
10.3763	6.85149	4.80713
10.3827	11.6552	4.87549
10.3882	12.8664	4.94385
10.3932	18.3607	5.012207
10.4001	26.9703	5.08057
10.405	29.91855	5.14893
10.4104	37.3667	5.21729
10.4168	40.7504	5.28564
10.4214	42.53632	5.354
10.4277	37.1619	5.42236
10.4326	41.5389	5.49072
10.4396	46.2152	5.559082
10.445	45.2389	5.62744
10.4502	50.0576	5.6958
10.4565	57.8885	5.76416
10.4618	63.3302	5.83252
10.468	69.8269	5.90088
10.4728	73.8264	5.96924
10.4787	76.8417	6.0376
10.4836	74.4081	6.105957
10.4902	76.895	6.17432
10.4956	80.2031	6.24268
10.501	80.13398	6.31104
10.5082	84.0942	6.37939
10.513	90.0334	6.44775
10.51838	95.281	6.51611
10.5242	102.278	6.58447
10.5304	106.711	6.652832
10.5358	108.589	6.72119
10.5419	108.818	6.78955
10.5464	113.2556	6.85791
10.552	114.52	6.92627
10.55803	113.56	6.99463
10.5642	116.162	7.06299
10.5708	121.0291	7.13135
10.575	125.65	7.199707
10.5813	132.291	7.26807
10.5877	139.216	7.33643
10.5925	140.374	7.40479
10.5984	144.228	7.47314
10.6043	146.9648	7.5415
10.60955	148.372	7.60986
10.61574	148.272	7.67822
10.6213	150.317	7.746582
10.62563	152.909	7.81494
10.6328	155.105	7.8833
10.6385	165.5938	7.95166
10.6445	172.865	8.02002
10.6503	175.764	8.08838
10.6544	176.063	8.15674
10.6616	183.293	8.2251
10.666	184.853	8.293457
10.6729	182.564	8.36182
10.6782	184.681	8.43018
10.6841	188.655	8.49854
10.6896	187.783	8.56689
10.6953	194.316	8.63525
10.7013	203.7402	8.70361
10.707	207.182	8.77197
10.7127	208.416	8.840332
10.7173	216.352	8.90869
10.7228	220.174	8.97705
10.7296	217.279	9.04541
10.7352	218.308	9.11377
10.7413	220.527	9.18213
10.7465	220.887	9.25049
10.7516	226.056	9.31885
10.7585	234.844	9.387207
10.7637	237.072	9.45557
10.77	240.824	9.52393
10.77459	248.36	9.59229
10.7807	252.806	9.66064
10.7861	253.389	9.729
10.7914	254.008	9.79736
10.7973	255.134	9.86572
10.8031	253.749	9.934082
10.8092	256.862	10.0024
10.8152	263.054	10.0708
10.8199	267.097	10.13916
10.8259	272.524	10.20752
10.8316	279.9617	10.2759
10.8375	285.424	10.3442
10.843	287.214	10.4126
10.848	290.022	10.481
10.8544	289.411	10.5493
10.8606	286.985	10.6177
10.8657	291.53	10.686
10.8704	295.408	10.7544
10.8771	297.93	10.8228
10.882	303.378	10.8911
10.8879	312.197	10.9595
10.8946	317.22	11.0278
10.8999	319.325	11.0962
10.9061	322.235	11.1646
10.9115	322.516	11.23291
10.91767	322.324	11.30127
10.922	323.797	11.3696
10.9286	327.984	11.438
10.9338	328.302	11.5063
10.9398	330.9458	11.5747
10.9447	341.593	11.6431
10.9523	348.298	11.7114
10.9564	351.312	11.7798
10.9618	355.74	11.8481
10.9676	357.024	11.9165
10.973	355.828	11.9849
10.9788	356.985	12.0532
10.9861	359.885	12.1216
10.9908	358.162	12.1899
10.9974	361.131	12.2583
11.0034	371.396	12.32666
11.008	376.985	12.39502
11.0145	380.774	12.4634
11.0201	386.784	12.5317
11.0251	389.293	12.6001
11.0318	389.644	12.6685
11.037	388.373	12.7368
11.0429	391.532	12.8052
11.048	388.786	12.8735
11.05389	389.048	12.9419
11.0595	400.489	13.0103
11.06535	408.78	13.0786
11.0722	410.735	13.147
11.0767	418.627	13.2153
11.0815	423.375	13.2837
11.0881	422.346	13.3521
11.0937	424.2	13.42041
11.0993	424.596	13.48877
11.1039	422.1738	13.5571
11.1102	422.471	13.6255
11.1159	429.107	13.6938
11.12238	437.199	13.7622
11.1286	440.0065	13.8306
11.1331	446.652	13.8989
11.1389	452.566	13.9673
11.1446	455.226	14.0356
11.1505	456.263	14.104
11.1565	455.741	14.1724
11.1621	454.332	14.2407
11.1673	452.96	14.3091
11.1738	458.84	14.3774
11.1798	463.7066	14.4458
11.1847	468.744	14.51416
11.19066	475.697	14.58252
11.1957	481.454	14.6509
11.202	485.244	14.7192
11.2075	488.4046	14.7876
11.2132	490.413	14.856
11.2194	485.731	14.9243
11.2247	486.77	14.9927
11.2308	490.275	15.061
11.2362	491.8728	15.1294
11.2412	495.765	15.1978
11.2475	504.347	15.2661
11.253	508.508	15.3345
11.259	515.256	15.4028
11.2646	519.1123	15.4712
11.2697	520.3092	15.5396
11.27519	518.4787	15.60791
11.2811	515.571	15.67627
11.2867	520.632	15.7446
11.2932	520.1001	15.813
11.2984	523.561	15.8813
11.3049	532.858	15.9497
11.3098	536.029	16.0181
11.3154	542.13	16.0864
11.3209	547.398	16.1548
11.3271	551.471	16.2231
11.3331	547.365	16.2915
11.3379	545.965	16.3599
11.34471	553.426	16.4282
11.34945	550.549	16.4966
11.3557	550.769	16.5649
11.3616	558.256	16.6333
11.3676	562.22	16.70166
11.3732	569.376	16.77002
11.3786	574.692	16.8384
11.3843	580.802	16.9067
11.3899	578.7478	16.9751
11.3954	578.182	17.0435
11.4012	582.06	17.1118
11.40731	580.515	17.1802
11.4124	578.083	17.2485
11.418	584.246	17.3169
11.4235	589.829	17.3853
11.4299	595.11	17.4536
11.4357	600.582	17.522
11.4405	607.53	17.5903
11.44566	607.504	17.6587
11.4523	606.648	17.7271
11.4572	610.127	17.79541
11.4631	608.463	17.86377
11.4692	607.117	17.9321
11.4761	610.505	18.0005
11.4799	614.8689	18.0688
11.4863	622.209	18.1372
11.4911	628.218	18.2056
11.498	631.563	18.2739
11.5027	633.791	18.3423
11.51	635.989	18.4106
11.51545	640.956	18.479
11.5206	638.947	18.5474
11.5264	638.142	18.6157
11.531	640.088	18.6841
11.53727	641.324	18.7524
11.5437	644.723	18.8208
11.5485	652.451	18.88916
11.5547	656.884	18.95752
11.5604	660.3	19.0259
11.5663	664.6665	19.0942
11.5721	668.696	19.1626
11.5778	665.954	19.231
11.5853	666.444	19.2993
11.5898	667.7373	19.3677
11.5945	666.529	19.436
11.6012	670.93	19.5044
11.607	675.72	19.5728
11.6116	681.077	19.6411
11.617	683.157	19.7095
11.6233	689.739	19.7778
11.6292	694.946	19.8462
[...]
12.3042	841.926	27.95166
12.3101	846.345	28.02002
12.3161	846.438	28.0884
12.32239	849.823	28.1567
12.32754	848.868	28.2251
12.3321	844.561	28.2935
12.3385	836.667	28.3618
12.3445	834.119	28.4302
12.3509	835.359	28.4985
12.35497	833.921	28.5669
12.3607	835.823	28.6353
12.3662	841.855	28.7036
12.3728	840.7605	28.772
12.3774	843.339	28.8403
12.385	844.372	28.9087
12.3894	842.495	28.9771
12.39519	834.632	29.04541
12.4011	832.895	29.11377
12.4066	833.524	29.1821
12.4133	827.904	29.2505
12.419	829.404	29.3188
12.42372	834.067	29.3872
12.4291	833.454	29.4556
12.4353	836.581	29.5239
12.4403	839.761	29.5923
12.447	840.599	29.6606
12.4518	834.827	29.729
12.4583	829.349	29.7974
12.4636	831.1449	29.8657
12.4697	825.56	29.9341
12.4755	823.627	30.0024
12.4812	829.502	30.0708
12.4862	828.791	30.13916
12.4919	833.106	30.20752
12.4984	835.441	30.2759
12.5035	836.463	30.3442
12.5094	831.545	30.4126
12.5153	828.2655	30.481
12.521	830.069	30.5493
12.5263	824.8573	30.6177
12.5327	820.654	30.686
12.5378	822.411	30.7544
12.5439	825.087	30.8228
12.5492	828.091	30.8911
12.5553	830.769	30.9595
12.56151	831.603	31.0278
12.5671	829.629	31.0962
12.5723	826.639	31.1646
12.5781	827.643	31.23291
12.5832	822.779	31.30127
12.5888	820.235	31.3696
12.595	820.212	31.438
12.59985	817.804	31.5063
12.6065	823.271	31.5747
12.6119	826.4751	31.6431
12.6175	828.017	31.7114
12.6229	826.7373	31.7798
12.6298	827.621	31.8481
12.6346	827.372	31.9165
12.6401	822.225	31.9849
12.64604	819.577	32.0532
12.6515	816.786	32.1216
12.6581	815.806	32.1899
12.6629	818.268	32.2583
12.6688	822.178	32.32666
12.67423	823.927	32.39502
12.6805	823.998	32.4634
12.68592	826.4303	32.5317
12.6916	828.182	32.6001
12.6977	824.148	32.6685
12.7039	819.584	32.7368
12.7088	818.6203	32.8052
12.71456	815.681	32.8735
12.7202	816.048	32.9419
12.7254	820.104	33.0103
12.73123	820.588	33.0786
12.7377	819.733	33.147
12.743	825.307	33.2153
12.7488	826.888	33.2837
12.75382	822.654	33.3521
12.75977	820.259	33.42041
12.76643	818.494	33.48877
12.7713	814.872	33.5571
12.7775	813.681	33.6255
12.78242	815.369	33.6938
12.7889	818.402	33.7622
12.7946	816.25	33.8306
12.79849	819.263	33.8989
12.8055	825.0321	33.9673
12.811	823.539	34.0356
12.8167	819.8786	34.104
12.8226	816.819	34.1724
12.8286	815.152	34.2407
12.834	811.992	34.3091
12.8404	813.178	34.3774
12.8446	813.072	34.4458
12.8514	814.737	34.51416
12.8575	815.112	34.58252
12.8625	821.684	34.6509
12.8692	822.252	34.7192
12.8735	819.854	34.7876
12.8807	819.924	34.856
12.88658	814.752	34.9243
12.8909	813.071	34.9927
12.8962	811.442	35.061
12.902	810.003	35.1294
12.9092	808.982	35.1978
12.91215	811.982	35.2661
12.9194	819.279	35.3345
12.9255	819.691	35.4028
12.9301	818.2674	35.4712
12.9374	817.354	35.5396
12.9426	813.874	35.60791
12.9489	811.765	35.67627
12.95386	811.417	35.7446
12.9589	807.542	35.813
12.96576	804.751	35.8813
12.9698	809.735	35.9497
12.9763	814.233	36.0181
12.9831	816.065	36.0864
12.988	817.067	36.1548
12.9928	816.244	36.2231
12.9988	810.503	36.2915
13.0116	-59.7014	36.3599
13.013	-47.1904	36.4282
13.0166	-51.23267	36.4966
13.0227	-57.0892	36.5649
13.0289	-51.7454	36.6333
13.0338	-45.8826	36.70166
13.0398	-44.915	36.77002
13.04532	-42.6281	36.8384
13.0509	-39.9402	36.9067
13.0561	-43.5628	36.9751
13.0617	-43.4676	37.0435
13.0685	-44.6195	37.1118
13.0742	-49.1292	37.1802
13.07935	-54.5066	37.2485
13.0849	-52.491	37.3169
13.0913	-46.76289	37.3853
13.0965	-48.2474	37.4536
13.1025	-44.8936	37.522
13.1084	-39.4555	37.5903
13.11295	-42.1679	37.6587
13.1192	-43.0569	37.7271
13.1258	-43.89518	37.79541
13.1307	-48.10701	37.86377
13.1364	-55.1519	37.9321
13.1421	-53.7102	38.0005
13.1483	-49.8802	38.0688
13.1488	-42.56007	38.0884