Folder: Stress_Strain_Analysis_Tools/data/processed_data_files/tensile (part 8)

File: 0.254_hd_dimension_typeiv_090_r(3).dat
MTS793|BTW|ENU|1|2|.|/|:|1|0|0|A

Data Header:			0.254_hd_dimension_typeiv_090_r0			Time:	20.0186	s	4/14/2019 12:29:34 AM
Data Acquisition:	Timed
Station Name:	ft40.cfg
Test File Name:	monotonic_0.2540_typeiv_hd_090_dimension.tst
Displacement	Force	Running Time
mm	N	s
-40.0405	-139.122	0.0224609
-40.0381	-136.471	0.0908203
-40.0319	-134.677	0.15918
-40.0266	-132.014	0.227539
-40.0216	-125.121	0.295898
-40.0153	-123.897	0.364258
-40.0094	-123.877	0.432617
-40.00489	-120.01	0.500977
-39.9981	-118.526	0.569336
-39.9923	-112.439	0.637695
-39.9871	-107.667	0.706055
-39.9816	-102.661	0.774414
-39.9755	-99.9261	0.842773
-39.9701	-96.576	0.911133
-39.9635	-89.44133	0.979492
-39.9587	-87.6487	1.04785
-39.9519	-86.0799	1.11621
-39.9471	-84.0663	1.18457
-39.9408	-82.7182	1.25293
-39.93647	-78.6046	1.32129
-39.9306	-72.5322	1.38965
-39.9237	-70.5428	1.45801
-39.9191	-68.5377	1.52637
-39.9127	-60.8661	1.59473
-39.9072	-54.2006	1.66309
-39.9017	-53.7919	1.73145
-39.896	-50.3476	1.7998
-39.8908	-47.8962	1.86816
-39.8837	-46.8027	1.93652
-39.8794	-42.8497	2.00488
-39.873	-38.5785	2.07324
-39.8678	-38.1887	2.1416
-39.8611	-33.294	2.20996
-39.8558	-26.7556	2.27832
-39.8496	-22.1278	2.34668
-39.8455	-18.9053	2.41504
-39.84	-15.5497	2.4834
-39.833	-14.2239	2.55176
-39.8277	-13.1769	2.62012
-39.8213	-7.75045	2.68848
-39.8156	-5.70353	2.75684
-39.8101	-3.1828	2.8252
-39.8053	-1.785073	2.89355
-39.7994	8.84319	2.96191
-39.7946	11.98772	3.03027
-39.7877	14.7874	3.09863
-39.782	19.6396	3.16699
-39.7766	22.0991	3.23535
-39.7701	22.0509	3.30371
-39.7646	27.3045	3.37207
-39.76	29.6126	3.44043
-39.75293	27.8168	3.50879
-39.7486	32.3183	3.57715
-39.7418	41.4051	3.64551
-39.73653	43.8313	3.71387
-39.7308	48.9547	3.78223
-39.7241	54.2396	3.85059
-39.7198	57.58	3.91895
-39.7139	59.9114	3.9873
-39.7075	62.6604	4.05566
-39.7024	62.6129	4.12402
-39.6972	61.39809	4.19238
-39.6913	65.0061	4.26074
-39.6852	74.4837	4.3291
-39.6796	76.3349	4.39746
-39.6742	80.6993	4.46582
-39.668	87.8852	4.53418
-39.6623	90.7772	4.60254
-39.6566	93.937	4.6709
-39.6514	97.5006	4.73926
-39.6443	98.4918	4.80762
-39.6396	96.1322	4.87598
-39.6337	99.3961	4.94434
-39.6286	106.582	5.0127
-39.6233	107.769	5.08105
-39.6177	112.815	5.14941
-39.611	120.595	5.21777
-39.6053	123.303	5.28613
-39.5996	128.631	5.35449
-39.5942	130.838	5.42285
-39.5885	133.802	5.49121
-39.5834	129.938	5.55957
-39.5778	134.479	5.62793
-39.5713	138.347	5.69629
-39.5659	140.819	5.76465
-39.5617	143.672	5.83301
-39.5549	151.299	5.90137
-39.5484	156.107	5.96973
-39.5426	160.402	6.03809
-39.53727	164.062	6.10645
-39.5318	166.327	6.1748
-39.525	164.227	6.24316
-39.5205	167.334	6.31152
-39.5145	171.656	6.37988
-39.50872	172.954	6.44824
-39.5043	176	6.5166
-39.4983	182.852	6.58496
-39.4924	188.13	6.65332
-39.487	193.357	6.72168
-39.4796	195.867	6.79004
-39.475	196.142	6.8584
-39.4694	196.728	6.92676
-39.4633	202.931	6.99512
-39.4576	203.687	7.06348
-39.4527	204.8956	7.13184
-39.44558	209.334	7.2002
-39.4411	215.499	7.26855
-39.4354	218.513	7.33691
-39.4297	224.261	7.40527
-39.4236	227.201	7.47363
-39.4189	227.103	7.54199
-39.4115	230.868	7.61035
-39.4069	234.991	7.67871
-39.4009	234.967	7.74707
-39.3965	237.5506	7.81543
-39.3896	241.334	7.88379
-39.3843	242.236	7.95215
-39.3788	250.579	8.02051
-39.37252	254.853	8.08887
-39.3663	257.568	8.15723
-39.3607	259.214	8.22559
-39.3546	262.87	8.29395
-39.3498	265.1507	8.3623
-39.3439	266.593	8.43066
-39.3383	268.982	8.49902
-39.3308	272.125	8.56738
-39.3265	271.334	8.63574
-39.3207	277.182	8.7041
-39.3143	284.515	8.77246
-39.3103	287.474	8.84082
-39.3054	288.683	8.90918
-39.2976	295.465	8.97754
-39.2921	298.076	9.0459
-39.286	297.397	9.11426
-39.2812	300.422	9.18262
-39.2764	302.91	9.25098
-39.2696	301.182	9.31934
-39.2646	305.629	9.3877
-39.2575	311.215	9.45605
-39.2524	313.575	9.52441
-39.248	316.158	9.59277
-39.241	324.92	9.66113
-39.236	327.18	9.72949
-39.2296	327.812	9.79785
-39.2242	330.499	9.86621
-39.2192	330.799	9.93457
-39.2131	331.8671	10.00293
-39.2061	335.689	10.0713
-39.2019	339.723	10.1396
-39.1956	339.58	10.208
-39.1896	344.191	10.2764
-39.1846	352.615	10.3447
-39.1787	357.219	10.4131
-39.1711	356.45	10.4814
-39.1663	360.403	10.5498
-39.1608	359.77	10.6182
-39.156	361.789	10.6865
-39.1497	362.814	10.7549
-39.1447	365.621	10.8232
-39.1381	365.418	10.8916
-39.1332	369.533	10.96
-39.1269	379.659	11.02832
-39.1221	380.261	11.09668
-39.1166	383.509	11.165
-39.1103	385.953	11.2334
-39.10437	385.913	11.3018
-39.09948	386.447	11.3701
-39.0932	390.779	11.4385
-39.0879	390.346	11.5068
-39.0824	390.153	11.5752
-39.0756	394.698	11.6436
-39.0698	401.871	11.7119
-39.0649	403.2818	11.7803
-39.0591	407.576	11.8486
-39.0539	411.792	11.917
-39.0471	411.583	11.9854
-39.0423	413.018	12.0537
-39.0363	414.197	12.12207
-39.0305	412.22	12.19043
-39.02491	412.005	12.2588
-39.01944	417.031	12.3271
-39.0127	422.034	12.3955
-39.0077	423.533	12.4639
-39.003	427.206	12.5322
-38.9964	431.64	12.6006
-38.9909	432.447	12.6689
-38.9853	433.168	12.7373
-38.9792	431.8642	12.8057
-38.9745	430.738	12.874
-38.9678	431.397	12.9424
-38.9625	434.73	13.0107
-38.9565	438.176	13.0791
-38.9506	440.305	13.1475
-38.945	444.712	13.21582
-38.9393	445.721	13.28418
-38.934	448.816	13.3525
-38.9277	449.818	13.4209
-38.9232	449.044	13.4893
-38.9168	446.157	13.5576
-38.9114	447.2999	13.626
-38.9055	446.982	13.6943
-38.9	447.677	13.7627
-38.8931	448.983	13.8311
-38.8867	453.622	13.8994
-38.8831	455.598	13.9678
-38.8782	461.176	14.0361
-38.8704	460.578	14.1045
-38.864	457.619	14.1729
-38.8596	454.711	14.2412
-38.855	455.561	14.30957
-38.847	455.994	14.37793
-38.8421	453.481	14.4463
-38.8369	457.315	14.5146
-38.8317	458.929	14.583
-38.8249	459.421	14.6514
-38.8187	464.27	14.7197
-38.81356	464.3428	14.7881
-38.809	461.273	14.8564
-38.8022	461.427	14.9248
-38.7975	463.707	14.9932
-38.7915	459.467	15.0615
-38.78598	455.692	15.1299
-38.78	458.417	15.1982
-38.77335	460.424	15.2666
-38.7682	460.841	15.335
-38.7626	464.469	15.40332
-38.7561	466.44	15.47168
-38.7509	462.6218	15.54
-38.746	462.666	15.6084
-38.7405	465.9772	15.6768
-38.7345	458.548	15.7451
-38.7293	457.479	15.8135
-38.7234	458.47	15.8818
-38.7167	455.418	15.9502
-38.7114	458.856	16.0186
-38.7059	461.1546	16.0869
-38.7004	461.513	16.1553
-38.6941	458.879	16.2236
-38.6898	459.7168	16.292
-38.6834	462.854	16.3604
-38.6781	457.1524	16.4287
-38.6718	454.63	16.49707
-38.6665	455.8063	16.56543
-38.6601	450.718	16.6338
-38.6547	451.802	16.7021
-38.6484	455.604	16.7705
-38.6442	454.536	16.8389
-38.63644	453.185	16.9072
-38.63208	457.4585	16.9756
-38.6253	459.2449	17.0439
-38.6194	454.514	17.1123
-38.6149	452.201	17.1807
-38.6093	450.091	17.249
-38.603	449.6	17.3174
-38.597	447.185	17.3857
-38.5924	450.921	17.4541
-38.5875	448.7684	17.5225
-38.5799	448.217	17.59082
-38.5741	452.518	17.65918
-38.5687	454.003	17.7275
-38.5626	449.15	17.7959
-38.5572	450.1377	17.8643
-38.55154	447.551	17.9326
-38.5463	446.846	18.001
-38.541	445.183	18.0693
-38.5348	444.593	18.1377
-38.5281	443.065	18.2061
-38.5238	445.581	18.2744
-38.5169	450.846	18.3428
-38.5123	449.4053	18.4111
-38.5073	448.45	18.4795
-38.5009	448.488	18.5479
-38.495	445.435	18.6162
-38.48959	443.901	18.68457
-38.4837	443.54	18.75293
-38.4789	440.242	18.8213
-38.4722	438.7973	18.8896
-38.4664	442.259	18.958
-38.4616	445.501	19.0264
-38.4559	446.616	19.0947
-38.4495	448.035	19.1631
[...]
-37.7597	431.44	27.4443
-37.7556	432.761	27.4932
-37.7514	437.25	27.542
-37.747	439.341	27.59082
-37.7427	433.281	27.6396
-37.73909	431.4313	27.6885
-37.735	433.8764	27.7373
-37.7323	437.177	27.7861
-37.7264	435.979	27.835
-37.7226	432.617	27.8838
-37.7184	434.035	27.9326
-37.7159	436.2829	27.9814
-37.7098	434.14	28.0303
-37.7055	431.003	28.0791
-37.7026	429.953	28.12793
-37.6986	435.0607	28.1768
-37.695	436.078	28.2256
-37.6908	434.121	28.2744
-37.6861	431.104	28.3232
-37.6826	433.176	28.37207
-37.6774	434.808	28.4209
-37.6736	435.015	28.4697
-37.6696	433.822	28.5186
-37.6656	431.097	28.5674
-37.6624	434.047	28.6162
-37.6576	435.705	28.665
-37.65448	432.019	28.7139
-37.6499	429.571	28.7627
-37.6452	431.17	28.8115
-37.6421	433.256	28.8604
-37.6365	433.189	28.90918
-37.6333	431.782	28.958
-37.6295	431.007	29.0068
-37.6249	434.266	29.0557
-37.6213	432.407	29.1045
-37.6176	430.9935	29.15332
-37.6144	429.033	29.2021
-37.6093	431.398	29.251
-37.6049	434.484	29.2998
-37.6012	435.609	29.3486
-37.5962	431.7674	29.3975
-37.5932	428.369	29.4463
-37.5885	432.3154	29.4951
-37.5841	435.679	29.5439
-37.5809	433.258	29.5928
-37.5755	429.003	29.6416
-37.5715	430.6438	29.69043
-37.5678	435.661	29.7393
-37.5643	435.769	29.7881
-37.5599	430.875	29.8369
-37.5564	426.946	29.8857
-37.55217	431.484	29.93457
-37.5483	438.65	29.9834
-37.5446	433.779	30.0322
-37.539	430.579	30.0811
-37.5362	427.636	30.1299
-37.5317	432.352	30.1787
-37.5285	435.689	30.2275
-37.5231	430.874	30.2764
-37.52	427.333	30.3252
-37.5156	430.855	30.374
-37.5117	436.209	30.4229
-37.507	434.567	30.47168
-37.503	426.0658	30.5205
-37.5	425.602	30.5693
-37.4963	430.731	30.6182
-37.49128	435.216	30.667
-37.4871	432.942	30.71582
-37.48341	427.76	30.7646
-37.4793	427.047	30.8135
-37.4744	430.818	30.8623
-37.4706	434.221	30.9111
-37.4666	428.606	30.96
-37.4625	425.305	31.0088
-37.4583	431.507	31.0576
-37.4534	436.24	31.1064
-37.4502	434.136	31.1553
-37.4476	425.787	31.2041
-37.4418	424.924	31.25293
-37.4383	430.643	31.3018
-37.4349	435.025	31.3506
-37.43042	431.449	31.3994
-37.4255	426.474	31.4482
-37.421	428.197	31.49707
-37.4169	432.179	31.5459
-37.4139	431.9454	31.5947
-37.41	426.937	31.6436
-37.4061	426.0524	31.6924
-37.4003	429.572	31.7412
-37.3967	434.787	31.79
-37.3931	431.864	31.8389
-37.3891	426.507	31.8877
-37.3853	425.888	31.9365
-37.3812	430.007	31.9854
-37.3771	433.082	32.03418
-37.3733	427.976	32.083
-37.3688	426.486	32.1318
-37.3635	428.565	32.1807
-37.3602	430.892	32.2295
-37.3564	427.527	32.27832
-37.352	424.135	32.3271
-37.348	423.488	32.376
-37.3445	428.0766	32.4248
-37.341	429.652	32.4736
-37.33675	429.7442	32.5225
-37.3311	423.552	32.5713
-37.3282	422.6709	32.6201
-37.3244	428.212	32.6689
-37.3197	427.837	32.7178
-37.3159	424.621	32.7666
-37.3117	424.717	32.81543
-37.3079	427.485	32.8643
-37.3027	427.356	32.9131
-37.3003	424.89	32.9619
-37.2968	421.387	33.0107
-37.2917	422.653	33.05957
-37.2876	426.72	33.1084
-37.283	424.931	33.1572
-37.2789	424.126	33.2061
-37.27597	421.871	33.2549
-37.2719	420.649	33.3037
-37.2665	422.496	33.3525
-37.2631	420.612	33.4014
-37.259	416.759	33.4502
-37.2523	-5.39872	33.499
-37.2494	-33.8117	33.5479
-37.2473	-36.5829	33.59668
-37.2417	-42.0514	33.6455
-37.2377	-43.8646	33.6943
-37.2343	-40.1607	33.7432
-37.2294	-38.4457	33.792
-37.2274	-38.8369	33.84082
-37.2215	-42.2795	33.8896
-37.219	-41.9569	33.9385
-37.2134	-37.7076	33.9873
-37.2104	-37.7603	34.0361
-37.2071	-42.349	34.085
-37.20216	-42.0595	34.1338
-37.1986	-37.3135	34.1826
-37.1942	-36.0577	34.2314
-37.1892	-36.88995	34.2803
-37.185	-43.0035	34.3291
-37.1808	-43.317	34.37793
-37.1784	-37.9045	34.4268
-37.1738	-37.4111	34.4756
-37.1706	-42.6619	34.5049

File: 0.254_hd_dimension_typeiv_090_r(4).dat
MTS793|BTW|ENU|1|2|.|/|:|1|0|0|A

Data Header:			0.254_hd_dimension_typeiv_090_r0			Time:	20.0271	s	4/14/2019 12:31:20 AM
Data Acquisition:	Timed
Station Name:	ft40.cfg
Test File Name:	monotonic_0.2540_typeiv_hd_090_dimension.tst
Displacement	Force	Running Time
mm	N	s
-40.0397	-19.6036	0.0305176
-40.04002	-21.1021	0.098877
-40.0349	-16.2353	0.167236
-40.0295	-11.0867	0.2355957
-40.0221	-10.9265	0.303955
-40.018	-9.921217	0.372314
-40.01162	-4.55312	0.440674
-40.0055	-3.17176	0.5090332
-40.0004	-2.26555	0.577393
-39.9949	1.97836	0.645752
-39.9888	5.05486	0.714111
-39.9833	13.2653	0.7824707
-39.97739	18.40081	0.85083
-39.9725	22.8018	0.919189
-39.9661	23.799	0.987549
-39.96035	26.5031	1.05591
-39.956	31.5834	1.12427
-39.9487	32.0249	1.192627
-39.9443	32.2906	1.26099
-39.9369	35.3071	1.32935
-39.9323	39.2309	1.39771
-39.9278	46.6038	1.46606
-39.9217	51.6096	1.53442
-39.9158	56.0735	1.60278
-39.9093	58.2677	1.67114
-39.90451	63.1976	1.739502
-39.8991	66.20639	1.80786
-39.8936	64.9921	1.87622
-39.8859	67.9298	1.94458
-39.88018	70.7444	2.01294
-39.876	73.0038	2.0813
-39.8704	79.866	2.14966
-39.8642	84.9822	2.21802
-39.8578	88.4193	2.286377
-39.85289	91.3414	2.35474
-39.8471	96.3745	2.4231
-39.842	99.549	2.49146
-39.8349	99.8848	2.55981
-39.82975	102.616	2.62817
-39.8231	102.097	2.69653
-39.8194	105.966	2.76489
-39.8136	113.366	2.833252
-39.8075	114.336	2.90161
-39.8017	117.828	2.96997
-39.7968	122.211	3.03833
-39.7893	129.236	3.10669
-39.7844	133.123	3.17505
-39.779	132.272	3.24341
-39.7739	135.917	3.31177
-39.7664	136.778	3.380127
-39.7619	138.798	3.44849
-39.7561	145.258	3.51685
-39.7508	146.363	3.58521
-39.745	147.2914	3.65356
-39.7389	152.948	3.72192
-39.7338	162.973	3.79028
-39.72797	164.217	3.85864
-39.7219	166.333	3.927002
-39.7157	170.993	3.99536
-39.7105	169.902	4.06372
-39.70578	174.078	4.13208
-39.6997	177.697	4.20044
-39.6938	177.749	4.2688
-39.6889	178.59	4.33716
-39.6816	185.243	4.40552
-39.6771	194.5713	4.473877
-39.67038	194.481	4.54224
-39.6653	199.244	4.6106
-39.6603	202.459	4.67896
-39.6544	203.3867	4.74731
-39.6481	205.932	4.81567
-39.6412	209.638	4.88403
-39.6366	207.459	4.95239
-39.6312	208.928	5.020752
-39.6245	218.255	5.08911
-39.6193	222.099	5.15747
-39.6132	223.687	5.22583
-39.60722	229.425	5.29419
-39.6028	234.977	5.36255
-39.5958	234.6899	5.43091
-39.5917	238.331	5.49927
-39.5846	241.1826	5.567627
-39.5796	239.711	5.63599
-39.5733	238.896	5.70435
-39.5678	248.886	5.77271
-39.5621	251.367	5.84106
-39.5572	254.237	5.90942
-39.5517	259.496	5.97778
-39.54517	263.749	6.04614
-39.5403	266.691	6.114502
-39.5332	269.5	6.18286
-39.5276	271.405	6.25122
-39.5216	267.88	6.31958
-39.5167	270.096	6.38794
-39.51067	277.849	6.4563
-39.5053	281.041	6.52466
-39.499	283.533	6.59302
-39.4938	289.912	6.661377
-39.4884	293.2543	6.72974
-39.4842	298.416	6.7981
-39.4779	299.225	6.86646
-39.4709	298.959	6.93481
-39.4653	299.7337	7.00317
-39.46	300.52	7.07153
-39.4539	305.9	7.13989
-39.4488	308.443	7.208252
-39.44313	313.222	7.27661
-39.4362	316.074	7.34497
-39.4304	320.414	7.41333
-39.42646	324.318	7.48169
-39.41983	326.372	7.55005
-39.4141	326.475	7.61841
-39.4095	327.924	7.68677
-39.4031	329.167	7.755127
-39.398	333.183	7.82349
-39.3911	332.739	7.89185
-39.3853	335.613	7.96021
-39.3813	340.284	8.02856
-39.3746	345.038	8.09692
-39.369	350.751	8.16528
-39.36261	352.8577	8.23364
-39.3574	351.557	8.302002
-39.3506	354.076	8.37036
-39.3465	357.422	8.43872
-39.3397	354.628	8.50708
-39.3338	356.44	8.57544
-39.3288	360.976	8.6438
-39.3232	361.227	8.71216
-39.31715	368.094	8.78052
-39.3112	373.504	8.848877
-39.3057	374.2822	8.91724
-39.301	375.723	8.9856
-39.2951	378.595	9.05396
-39.28899	380.746	9.12231
-39.2838	379.635	9.19067
-39.2772	378.698	9.25903
-39.2734	382.525	9.32739
-39.2663	381.947	9.395752
-39.2607	386.182	9.46411
-39.2541	393.375	9.53247
-39.2486	393.592	9.60083
-39.2438	394.94	9.66919
-39.2372	400.119	9.73755
-39.2319	402.863	9.80591
-39.2265	399.607	9.87427
-39.2206	401.597	9.942627
-39.2153	401.372	10.011
-39.2105	401.166	10.0793
-39.203	405.756	10.1477
-39.1973	409.652	10.2161
-39.1917	409.804	10.2844
-39.1876	412.697	10.3528
-39.1802	417.57	10.4211
-39.17482	418.582	10.4895
-39.1695	415.868	10.5579
-39.1631	418.656	10.6262
-39.1581	418.202	10.69458
-39.152	417.5098	10.7629
-39.1469	420.701	10.8313
-39.1409	424.143	10.8997
-39.1349	421.441	10.968
-39.1297	425.718	11.0364
-39.1232	432.371	11.1047
-39.1175	431.053	11.1731
-39.1123	431.687	11.2415
-39.1063	432.264	11.3098
-39.1024	431.276	11.3782
-39.0951	431.298	11.4465
-39.0889	431.348	11.5149
-39.0839	432.817	11.5833
-39.0786	430.844	11.6516
-39.0717	435.468	11.72
-39.0666	442.53	11.78833
-39.0618	439.615	11.8567
-39.0554	440.516	11.925
-39.0508	444.14	11.9934
-39.0447	441.627	12.0618
-39.039	439.31	12.1301
-39.0326	439.396	12.1985
-39.0275	438.689	12.2668
-39.0215	437.748	12.3352
-39.0164	441.545	12.4036
-39.0099	446.423	12.4719
-39.0042	446.926	12.5403
-38.998	447.513	12.6086
-38.9923	450.828	12.677
-38.9869	447.9	12.7454
-38.9816	448.033	12.8137
-38.9759	445.316	12.88208
-38.9706	443.125	12.9504
-38.9634	441.434	13.0188
-38.9585	448.281	13.0872
-38.9536	447.306	13.1555
-38.9476	449.535	13.2239
-38.9422	451.684	13.2922
-38.9362	451.535	13.3606
-38.9296	453.668	13.429
-38.9249	450.459	13.4973
-38.9185	448.533	13.5657
-38.9134	444.604	13.634
-38.9081	444.866	13.7024
-38.9008	447.046	13.7708
-38.8964	447.28	13.8391
-38.8899	448.664	13.9075
-38.88488	450.832	13.97583
-38.87933	450.315	14.0442
-38.87355	453.136	14.1125
-38.8667	452.881	14.1809
-38.861	448.4	14.2493
-38.8559	444.653	14.3176
-38.8511	445.833	14.386
-38.8434	444.647	14.4543
-38.8397	443.622	14.5227
-38.8332	446.863	14.5911
-38.8277	446.291	14.6594
-38.8225	447.456	14.7278
-38.8164	451	14.7961
-38.8101	451.541	14.8645
-38.8047	445.754	14.9329
-38.79921	442.495	15.0012
-38.7935	443.717	15.06958
-38.78759	440.803	15.1379
-38.7829	438.872	15.2063
-38.7751	442.716	15.2747
-38.77	444.462	15.343
-38.7646	444.035	15.4114
-38.7593	448.095	15.4797
-38.7543	449.457	15.5481
-38.7483	442.785	15.6165
-38.7412	440.705	15.6848
-38.7373	444.539	15.7532
-38.7303	438.658	15.8215
-38.7245	437.643	15.8899
-38.7199	438.1962	15.9583
-38.7132	439.607	16.0266
-38.7078	441.397	16.095
-38.703	444.618	16.16333
-38.6968	443.5751	16.2317
-38.6907	439.328	16.3
-38.6857	441.012	16.3684
-38.6797	442.524	16.4368
-38.6735	434.807	16.5051
-38.6676	434.816	16.5735
-38.663	437.155	16.6418
-38.656	433.438	16.7102
-38.6516	435.8425	16.7786
-38.6448	440.413	16.8469
-38.6392	441.288	16.9153
-38.6332	437.77	16.9836
-38.6275	438.845	17.052
-38.6221	441.097	17.1204
-38.6167	435.241	17.1887
-38.6115	433.571	17.25708
-38.6058	433.172	17.3254
-38.6	433.186	17.3938
-38.5936	434.806	17.4622
-38.5883	436.204	17.5305
-38.58157	436.609	17.5989
-38.577	436.328	17.6672
-38.5723	440.101	17.7356
-38.5655	440.111	17.804
-38.5592	435.4693	17.8723
-38.5538	433.6824	17.9407
-38.5494	433.063	18.009
-38.5425	430.707	18.0774
-38.5365	432.456	18.1458
-38.5315	434.156	18.2141
-38.526	432.783	18.2825
-38.52	433.634	18.35083
-38.5143	439.285	18.4192
-38.5084	438.641	18.4875
-38.5029	435.376	18.5559
-38.497	434.904	18.6243
-38.4916	431.987	18.6926
-38.48592	432.804	18.761
-38.4801	430.521	18.8293
-38.4745	431.9696	18.8977
-38.4703	429.813	18.9661
-38.464	432.069	19.0344
-38.4576	438.663	19.1028
-38.4519	436.17	19.1711
[...]
-38.3606	426.517	20.2649
-38.3595	431.551	20.2844
-38.3573	433.497	20.304
-38.3558	427.9982	20.3235
-38.3532	429.313	20.343
-38.3517	436.366	20.3625
-38.3494	426.717	20.38208
-38.3494	429.363	20.4016
-38.3484	432.25	20.4211
-38.3464	430.2612	20.4407
-38.3441	427.479	20.4602
-38.3424	436.202	20.4797
-38.3402	427.412	20.4993
-38.3385	427.5	20.5188
-38.3374	431.826	20.53833
-38.3353	433.141	20.5579
-38.3349	427.786	20.5774
-38.3329	430.963	20.5969
-38.3314	429.811	20.6165
-38.3296	429.04	20.636
-38.3281	428.183	20.6555
-38.3266	432.98	20.675
-38.3238	426.796	20.69458
-38.3232	427.001	20.7141
-38.32093	430.676	20.7336
-38.3192	429.0849	20.7532
-38.31765	424.169	20.7727
-38.3165	431.169	20.7922
-38.3143	430.841	20.8118
-38.31311	423.994	20.8313
-38.312	429.5	20.85083
-38.3106	431.105	20.8704
-38.3087	425.203	20.8899
-38.3068	430.016	20.9094
-38.306	433.634	20.929
-38.3029	423.053	20.9485
-38.3026	428.878	20.968
-38.3007	430.942	20.9875
-38.299	425.613	21.00708
-38.2969	425.741	21.0266
-38.29533	433.854	21.0461
-38.2943	426.511	21.0657
-38.2912	424.735	21.0852
-38.291	429.038	21.1047
-38.2901	428.189	21.1243
-38.2878	425.252	21.1438
-38.28582	430.461	21.16333
-38.28426	427.393	21.1829
-38.2824	423.78	21.2024
-38.2814	426.952	21.2219
-38.279	430.974	21.2415
-38.2766	424.0441	21.261
-38.2761	426.088	21.2805
-38.2744	428.63	21.3
-38.2731	425.572	21.31958
-38.27095	423.521	21.3391
-38.2697	426.309	21.3586
-38.2676	427.707	21.3782
-38.2657	422.387	21.3977
-38.2651	427.769	21.4172
-38.2621	425.789	21.4368
-38.2618	421.361	21.4563
-38.2591	427.795	21.47583
-38.2578	430.234	21.4954
-38.257	420.802	21.5149
-38.2547	425.395	21.5344
-38.253	428.384	21.554
-38.2526	423.86	21.5735
-38.25	423.478	21.593
-38.2477	430.45	21.6125
-38.2475	419.824	21.63208
-38.24432	424.599	21.6516
-38.2434	427.473	21.6711
-38.2419	422.761	21.6907
-38.2412	421.297	21.7102
-38.23893	428.502	21.7297
-38.237	421.068	21.7493
-38.2362	420.732	21.7688
-38.2336	421.971	21.78833
-38.2315	425.279	21.8079
-38.2299	420.942	21.8274
-38.2286	422.556	21.8469
-38.22805	422.3602	21.8665
-38.2262	418.824	21.886
-38.2225	420.181	21.9055
-38.2224	423.46	21.925
-38.21941	417.751	21.94458
-38.2199	415.32	21.9641
-38.2171	421.06	21.9836
-38.2166	418.856	22.0032
-38.213	413.934	22.0227
-38.2124	417.397	22.0422
-38.21072	415.646	22.0618
-38.2078	410.277	22.0813
-38.2067	414.289	22.10083
-38.2054	407.623	22.1204
-38.201	-58.1043	22.1399
-38.2002	-32.0537	22.1594
-38.1995	-31.8673	22.179
-38.1983	-44.1641	22.1985
-38.197	-38.2699	22.218
-38.196	-38.815	22.2375
-38.1928	-41.3613	22.25708
-38.1929	-40.69775	22.2766
-38.1917	-36.9245	22.2961
-38.1902	-43.643	22.3157
-38.188	-41.0909	22.3352
-38.1859	-38.2458	22.3547
-38.1848	-39.9002	22.3743
-38.182	-43.6686	22.3938
-38.1808	-36.6936	22.41333
-38.1798	-40.3733	22.4329
-38.1784	-42.3396	22.4524
-38.1762	-39.6069	22.4719
-38.1741	-39.3432	22.4915
-38.1716	-42.359	22.511
-38.1712	-41.512	22.5305
-38.1699	-39.1125	22.55
-38.1683	-42.9282	22.56958
-38.16721	-41.3149	22.5891
-38.1664	-37.7406	22.6086
-38.1635	-39.0769	22.6282
-38.1613	-46.6655	22.6477
-38.1599	-38.62685	22.6672
-38.158	-39.6868	22.6868
-38.158	-43.0631	22.7063
-38.1537	-39.7393	22.72583
-38.1544	-37.7026	22.7454
-38.15147	-46.9948	22.7649
-38.1504	-37.5246	22.7844
-38.1486	-39.5602	22.804
-38.1463	-44.0219	22.8235
-38.1448	-41.1161	22.843
-38.1438	-36.3639	22.8625
-38.1422	-46.1822	22.88208
-38.14106	-42.5479	22.9016
-38.1392	-39.0707	22.9211
-38.1375	-41.0952	22.9407
-38.1356	-41.6699	22.9602
-38.135	-37.4317	22.9797
-38.1333	-42.7149	22.9993
-38.13139	-43.2158	23.0188
-38.1303	-39.8805	23.03833
-38.1266	-39.3148	23.0579
-38.1259	-44.736	23.0774