Folder: Stress_Strain_Analysis_Tools/data/processed_data_files/tensile (part 23)

File: 0.254_hd_uprint_typeiv_090_r(7).dat
MTS793|BTW|ENU|1|2|.|/|:|1|0|0|A

Data Header:			0.254_hd_uprint_typeiv_090_r0			Time:	20.0183	s	4/13/2019 11:11:39 PM
Data Acquisition:	Timed
Station Name:	ft40.cfg
Test File Name:	monotonic_0.2540_typeiv_solid_4545_uprint.tst
Displacement	Force	Running Time
mm	N	s
-40.04248	-158.146	0.0229492
-40.0416	-161.733	0.0913086
-40.0357	-160.369	0.159668
-40.03027	-156.312	0.228027
-40.0243	-149.057	0.296387
-40.0184	-145.614	0.364746
-40.0123	-144.083	0.433105
-40.0055	-140.207	0.501465
-40.0012	-139.838	0.569824
-39.99596	-137.204	0.638184
-39.9894	-131.682	0.706543
-39.9842	-129.068	0.774902
-39.9791	-126.501	0.843262
-39.9723	-120.587	0.911621
-39.9671	-113.295	0.97998
-39.9609	-111.975	1.04834
-39.9553	-110.036	1.1167
-39.95	-106.727	1.18506
-39.9439	-107.153	1.253418
-39.9391	-105.1599	1.32178
-39.9329	-99.6482	1.39014
-39.9268	-96.2175	1.4585
-39.9212	-96.6679	1.52686
-39.9143	-88.4317	1.59521
-39.9097	-80.9334	1.66357
-39.9041	-79.4725	1.73193
-39.8981	-77.1425	1.800293
-39.8913	-70.3155	1.86865
-39.8867	-71.6133	1.93701
-39.8816	-70.2317	2.00537
-39.8753	-66.1975	2.07373
-39.8694	-65.0145	2.14209
-39.86459	-64.0019	2.21045
-39.8575	-56.1276	2.27881
-39.8517	-47.4458	2.347168
-39.8474	-45.9413	2.41553
-39.8407	-41.2524	2.48389
-39.8353	-36.646	2.55225
-39.83	-40.2222	2.62061
-39.8246	-36.1247	2.68896
-39.819	-31.8407	2.75732
-39.8138	-32.1263	2.82568
-39.8064	-33.2232	2.894043
-39.8014	-22.9845	2.9624
-39.7959	-19.0238	3.03076
-39.7902	-14.75979	3.09912
-39.7851	-10.078	3.16748
-39.779	-4.82509	3.23584
-39.7736	-5.298346	3.3042
-39.76775	-1.9177	3.37256
-39.762	0.0141764	3.440918
-39.7563	-1.53975	3.50928
-39.7502	0.579462	3.57764
-39.7437	8.76678	3.646
-39.739	12.81872	3.71436
-39.7335	15.489	3.78271
-39.7275	22.2794	3.85107
-39.7217	27.2137	3.91943
-39.7173	27.4778	3.987793
-39.7103	30.5881	4.05615
-39.7035	32.985	4.12451
-39.6993	32.5447	4.19287
-39.693	33.0406	4.26123
-39.688	41.823	4.32959
-39.6816	45.91486	4.39795
-39.6766	49.2167	4.46631
-39.6709	55.5689	4.534668
-39.66452	58.19046	4.60303
-39.6594	63.9883	4.67139
-39.6548	65.7222	4.73975
-39.6485	65.6353	4.80811
-39.643	65.8435	4.87646
-39.6362	68.1512	4.94482
-39.6304	73.6506	5.01318
-39.6252	75.7527	5.081543
-39.619	80.42984	5.1499
-39.6136	84.345	5.21826
-39.6081	90.78875	5.28662
-39.60144	94.3601	5.35498
-39.596	96.9607	5.42334
-39.5908	97.7357	5.4917
-39.5846	97.3564	5.56006
-39.5788	102.3479	5.628418
-39.57436	105.038	5.69678
-39.5695	106.344	5.76514
-39.5635	112.316	5.8335
-39.5565	113.984	5.90186
-39.5516	119.789	5.97021
-39.5461	125.33	6.03857
-39.5391	127.932	6.10693
-39.5348	128.269	6.175293
-39.5288	132.072	6.24365
-39.5221	135.909	6.31201
-39.5177	136.351	6.38037
-39.5106	138.428	6.44873
-39.5066	142.775	6.51709
-39.5003	144.39	6.58545
-39.4952	150.5808	6.65381
-39.4879	156.503	6.722168
-39.4819	158.315	6.79053
-39.476	158.688	6.85889
-39.4715	163.905	6.92725
-39.4657	169.288	6.99561
-39.4597	166.949	7.06396
-39.4545	170.236	7.13232
-39.4473	174.273	7.20068
-39.4422	172.819	7.269043
-39.4369	181.221	7.3374
-39.4317	185.157	7.40576
-39.4259	185.875	7.47412
-39.4207	190.493	7.54248
-39.4142	196.389	7.61084
-39.4086	199.734	7.6792
-39.40414	196.966	7.74756
-39.3973	202.511	7.815918
-39.3913	205.4595	7.88428
-39.3865	204.785	7.95264
-39.3809	209.552	8.021
-39.3743	215.901	8.08936
-39.3688	216.234	8.15771
-39.3624	220.684	8.22607
-39.3579	228.677	8.29443
-39.3519	230.025	8.362793
-39.3455	229.3828	8.43115
-39.34174	233.207	8.49951
-39.3342	233.064	8.56787
-39.3284	234.378	8.63623
-39.3228	240.25	8.70459
-39.3176	242.759	8.77295
-39.3128	243.431	8.84131
-39.306	248.694	8.909668
-39.2996	257.38	8.97803
-39.2956	259.536	9.04639
-39.2893	260.362	9.11475
-39.2837	264.706	9.18311
-39.2771	265.753	9.25146
-39.272	266.525	9.31982
-39.2653	269.517	9.38818
-39.26141	271.698	9.456543
-39.2553	272.576	9.5249
-39.2485	277.878	9.59326
-39.2438	286.328	9.66162
-39.2383	287.891	9.72998
-39.232	290.324	9.79834
-39.2267	295.208	9.8667
-39.2206	294.432	9.93506
-39.215	295.235	10.0034
-39.2096	298.3	10.0718
-39.2039	298.407	10.1401
-39.1983	300.071	10.2085
-39.1926	305.394	10.2769
-39.187	312.22	10.3452
-39.1797	315.181	10.4136
-39.1759	319.039	10.4819
-39.1708	323.67	10.5503
-39.1636	323.519	10.6187
-39.158	324.967	10.687
-39.1529	326.186	10.7554
-39.1462	325.421	10.82373
-39.1421	326.791	10.89209
-39.1354	334.189	10.9604
-39.1291	338.527	11.0288
-39.1238	341.127	11.0972
-39.11808	346.684	11.1655
-39.1122	349.732	11.2339
-39.1066	352.803	11.3022
-39.1007	351.975	11.3706
-39.0966	352.338	11.439
-39.0898	351.298	11.5073
-39.0838	353.147	11.5757
-39.079	359.526	11.644
-39.0731	364.346	11.7124
-39.0666	366.791	11.7808
-39.0617	372.159	11.8491
-39.0554	374.734	11.91748
-39.0492	377.812	11.98584
-39.043	378.888	12.0542
-39.0379	378.372	12.1226
-39.0337	375.589	12.1909
-39.0277	378.967	12.2593
-39.021	383.4054	12.3276
-39.016	383.754	12.396
-39.01	389.612	12.4644
-39.0033	393.486	12.5327
-38.9986	395.343	12.6011
-38.9924	401.252	12.6694
-38.9869	402.786	12.7378
-38.9812	399.865	12.8062
-38.97562	399.278	12.8745
-38.9702	401.629	12.9429
-38.9635	400.83	13.01123
-38.9587	404.586	13.07959
-38.953	410.21	13.1479
-38.9488	412.707	13.2163
-38.9417	413.4819	13.2847
-38.9364	420.307	13.353
-38.9299	420.6636	13.4214
-38.9232	420.191	13.4897
-38.9192	419.846	13.5581
-38.9133	422.625	13.6265
-38.9071	421.442	13.6948
-38.901	420.642	13.7632
-38.8963	425.245	13.8315
-38.88953	425.198	13.8999
-38.8837	430.3	13.9683
-38.88	434.566	14.0366
-38.874	436.768	14.10498
-38.8678	434.416	14.17334
-38.861	435.363	14.2417
-38.8562	438.636	14.3101
-38.8505	434.602	14.3784
-38.8446	434.19	14.4468
-38.83889	437.48	14.5151
-38.8328	438.167	14.5835
-38.8264	440.338	14.6519
-38.8218	445.829	14.7202
-38.81638	445.649	14.7886
-38.8095	443.769	14.8569
-38.80526	444.917	14.9253
-38.799	447.977	14.9937
-38.7929	444.3526	15.062
-38.7876	443.886	15.1304
-38.7812	445.2663	15.19873
-38.7774	442.636	15.26709
-38.7714	444.581	15.3354
-38.7653	447.488	15.4038
-38.7597	448.249	15.4722
-38.75312	447.245	15.5405
-38.74823	449.52	15.6089
-38.74276	451.881	15.6772
-38.7365	447.314	15.7456
-38.7304	446.796	15.814
-38.7256	445.646	15.8823
-38.7191	444.286	15.9507
-38.7134	443.809	16.019
-38.7084	446.701	16.0874
-38.7023	446.09	16.1558
-38.6969	445.612	16.2241
-38.6905	451.286	16.29248
-38.6856	451.101	16.36084
-38.6795	446.303	16.4292
-38.67395	446.042	16.4976
-38.6683	445.134	16.5659
-38.6627	442.528	16.6343
-38.6567	442.47	16.7026
-38.6514	441.285	16.771
-38.6447	438.805	16.8394
-38.63998	440.53	16.9077
-38.6335	446.853	16.9761
-38.6278	448.21	17.0444
-38.6226	444.785	17.1128
-38.6165	444.206	17.1812
-38.6116	440.472	17.2495
-38.6063	440.546	17.3179
-38.5987	437.356	17.38623
-38.5945	436.129	17.45459
-38.5891	436.206	17.5229
-38.5828	438.597	17.5913
-38.5778	440.775	17.6597
-38.5719	440.364	17.728
-38.5661	441.206	17.7964
-38.5614	438.7598	17.8647
-38.5541	436.759	17.9331
-38.5479	436.428	18.0015
-38.5431	433.98	18.0698
-38.53793	430.612	18.1382
-38.5311	428.97	18.2065
-38.5259	432.59	18.2749
-38.5201	435.83	18.3433
-38.5139	434.629	18.4116
-38.50882	438.814	18.47998
-38.5027	437.6225	18.54834
-38.4979	434.652	18.6167
-38.492	435.259	18.6851
-38.4862	433.056	18.7534
-38.4798	427.431	18.8218
-38.4743	427.335	18.8901
-38.4693	431.61	18.9585
-38.4637	430.628	19.0269
-38.45681	432.825	19.0952
[...]
-38.0588	418.355	23.8901
-38.0537	424.807	23.9292
-38.0518	423.2197	23.9683
-38.0473	420.542	24.0073
-38.0434	426.065	24.0464
-38.0422	417.435	24.0854
-38.03735	423.759	24.1245
-38.0349	423.841	24.1636
-38.03231	419.608	24.2026
-38.0282	425.45	24.2417
-38.0259	422.539	24.2808
-38.0221	416.6	24.3198
-38.0184	423.57	24.3589
-38.0149	418.973	24.3979
-38.0117	416.942	24.437
-38.009	422.71	24.4761
-38.0052	416.648	24.5151
-38.00391	419.81	24.5542
-38.0005	419.572	24.5933
-37.9962	419.0127	24.6323
-37.9939	419.808	24.6714
-37.9897	418.134	24.7104
-37.9868	419.495	24.7495
-37.9826	420.987	24.7886
-37.9803	417.258	24.8276
-37.97636	422.519	24.8667
-37.9734	419.374	24.9058
-37.9697	418.993	24.9448
-37.9659	425.825	24.9839
-37.963	416.319	25.0229
-37.9605	421.189	25.062
-37.9566	423.228	25.1011
-37.9532	416.926	25.1401
-37.9507	423.288	25.1792
-37.9466	421.653	25.2183
-37.9445	420.153	25.2573
-37.94	423.6214	25.2964
-37.9366	418.359	25.3354
-37.9333	420.005	25.3745
-37.9304	422.892	25.4136
-37.9266	414.043	25.4526
-37.92387	422.732	25.4917
-37.9215	418.041	25.5308
-37.9172	414.0246	25.5698
-37.914	422.898	25.6089
-37.9117	414.101	25.6479
-37.907	415.325	25.687
-37.9062	418.844	25.7261
-37.902	414.707	25.7651
-37.8979	417.891	25.8042
-37.8954	419.531	25.8433
-37.8921	415.204	25.8823
-37.8889	418.729	25.9214
-37.8852	414.319	25.9604
-37.8811	418.816	25.9995
-37.8785	417.196	26.0386
-37.8762	415.598	26.0776
-37.872	419.028	26.1167
-37.8687	415.448	26.1558
-37.8654	415.135	26.1948
-37.8626	420.775	26.2339
-37.8593	415.208	26.2729
-37.8557	416.302	26.312
-37.8536	422.786	26.3511
-37.85006	412.949	26.3901
-37.8457	421.476	26.4292
-37.8431	417.686	26.4683
-37.84029	415.622	26.5073
-37.8378	420.399	26.5464
-37.83334	412.666	26.5854
-37.8306	417.798	26.6245
-37.8275	417.828	26.6636
-37.8236	410.592	26.7026
-37.8193	417.786	26.7417
-37.8177	415.98	26.7808
-37.8126	409.3606	26.8198
-37.8102	417.869	26.8589
-37.8071	413.45	26.8979
-37.8042	411.193	26.937
-37.80043	416.648	26.9761
-37.7959	409.31	27.0151
-37.7933	412.1424	27.0542
-37.7903	410.607	27.0933
-37.7868	408.922	27.1323
-37.7853	406.582	27.1714
-37.7778	-33.4159	27.2104
-37.7768	-45.2308	27.2495
-37.7739	-44.3135	27.2886
-37.76984	-45.8028	27.3276
-37.7666	-39.8054	27.3667
-37.7643	-42.9966	27.4058
-37.7603	-44.9568	27.4448
-37.7586	-38.6366	27.4839
-37.7542	-45.2564	27.5229
-37.751	-42.9973	27.562
-37.748	-41.7396	27.6011
-37.7445	-43.5818	27.6401
-37.7411	-41.0472	27.6792
-37.7377	-42.7219	27.7183
-37.735	-45.5331	27.7573
-37.7315	-40.9907	27.7964
-37.7294	-47.4601	27.8354
-37.7248	-42.113	27.8745
-37.7219	-42.9864	27.9136
-37.7198	-50.8618	27.9526
-37.716	-41.4638	27.9917
-37.7123	-45.0102	28.0308
-37.7102	-50.4537	28.0698
-37.70533	-42.7467	28.1089
-37.7033	-46.6369	28.1479
-37.6997	-49.71616	28.187
-37.6964	-42.9802	28.2261
-37.6933	-45.8365	28.2651
-37.6901	-44.2656	28.3042
-37.6857	-43.74509	28.3433
-37.6834	-45.475	28.3823
-37.6799	-40.4438	28.4214
-37.6767	-44.7971	28.4604
-37.6737	-41.6051	28.4995
-37.6706	-42.1532	28.5386
-37.66785	-44.8529	28.5776
-37.6639	-40.4862	28.6167
-37.6601	-42.5067	28.6558
-37.6573	-46.8297	28.6948
-37.6552	-40.0727	28.7339
-37.65073	-43.8868	28.7729
-37.6467	-42.7167	28.812
-37.6438	-38.7565	28.8511
-37.6412	-48.1203	28.8901
-37.637	-39.1794	28.9292
-37.63483	-44.5381	28.9683
-37.6302	-45.1379	29.0073
-37.6278	-41.985	29.0464
-37.6251	-48.6581	29.0854
-37.6215	-44.107	29.1245
-37.6181	-41.2669	29.1636
-37.6151	-48.6814	29.2026
-37.6118	-42.6408	29.2417
-37.6086	-42.2685	29.2808
-37.60561	-49.6997	29.3198
-37.6019	-40.7173	29.3589
-37.5986	-45.2041	29.3979
-37.5959	-46.3339	29.437
-37.5915	-41.8657	29.4761

File: 0.254_hd_uprint_typeiv_090_r(8).dat
MTS793|BTW|ENU|1|2|.|/|:|1|0|0|A

Data Header:			0.254_hd_uprint_typeiv_090_r0			Time:	20.0183	s	4/13/2019 11:14:08 PM
Data Acquisition:	Timed
Station Name:	ft40.cfg
Test File Name:	monotonic_0.2540_typeiv_solid_4545_uprint.tst
Displacement	Force	Running Time
mm	N	s
-40.043	-142.978	0.0227051
-40.041	-142.874	0.0910645
-40.0353	-142.22	0.159424
-40.0297	-137.701	0.2277832
-40.0239	-133.691	0.296143
-40.0182	-128.078	0.364502
-40.0125	-127.472	0.432861
-40.0064	-120.4257	0.5012207
-40.0004	-115.553	0.56958
-39.9955	-111.852	0.637939
-39.9906	-108.99	0.706299
-39.9829	-107.315	0.7746582
-39.9796	-107.554	0.843018
-39.9724	-105.148	0.911377
-39.9669	-100.636	0.979736
-39.9615	-97.23111	1.0481
-39.9537	-94.5306	1.11646
-39.95	-90.075	1.18481
-39.9435	-79.2801	1.25317
-39.9385	-79.9913	1.32153
-39.9328	-75.2194	1.38989
-39.927	-73.3157	1.458252
-39.9218	-71.9271	1.52661
-39.9156	-71.0955	1.59497
-39.9099	-65.5743	1.66333
-39.90517	-63.9093	1.73169
-39.8987	-62.8699	1.80005
-39.8932	-55.4855	1.86841
-39.88763	-47.3496	1.93677
-39.88192	-47.2672	2.005127
-39.8758	-44.2726	2.07349
-39.8701	-38.7696	2.14185
-39.8637	-39.2325	2.21021
-39.8589	-37.7857	2.27856
-39.85281	-32.4987	2.34692
-39.8475	-32.4739	2.41528
-39.8407	-33.0158	2.48364
-39.8353	-27.0541	2.552002
-39.8304	-17.57262	2.62036
-39.8242	-17.0112	2.68872
-39.819	-11.6148	2.75708
-39.812	-9.20545	2.82544
-39.8075	-6.68734	2.8938
-39.8023	-4.30325	2.96216
-39.7966	-0.0862019	3.03052
-39.7899	-1.23081	3.098877
-39.7842	0.08372245	3.16724
-39.7798	8.55047	3.2356
-39.7722	11.6965	3.30396
-39.76754	14.7568	3.37231
-39.7621	20.4263	3.44067
-39.75544	26.8711	3.50903
-39.7504	26.1712	3.57739
-39.7447	29.599	3.645752
-39.739	32.8547	3.71411
-39.7336	31.3887	3.78247
-39.7267	31.8201	3.85083
-39.7216	39.7186	3.91919
-39.7161	40.8133	3.98755
-39.7104	45.2852	4.05591
-39.7048	51.7572	4.12427
-39.6992	55.8774	4.192627
-39.6925	60.1547	4.26099
-39.6883	62.13813	4.32935
-39.6822	65.0089	4.39771
-39.6773	62.8116	4.46606
-39.67046	65.5084	4.53442
-39.6646	71.1423	4.60278
-39.6593	73.80378	4.67114
-39.6541	75.6986	4.739502
-39.6489	82.7976	4.80786
-39.641	85.1874	4.87622
-39.6374	92.9606	4.94458
-39.6317	95.2935	5.01294
-39.6248	96.6348	5.0813
-39.62	94.452	5.14966
-39.613	98.9165	5.21802
-39.609	101.73	5.286377
-39.6025	102.701	5.35474
-39.5967	108.331	5.4231
-39.5913	112.851	5.49146
-39.5858	117.914	5.55981
-39.5794	124.5399	5.62817
-39.5739	126.4513	5.69653
-39.5687	128.952	5.76489
-39.5625	127.858	5.833252
-39.557	132.892	5.90161
-39.5519	134.3168	5.96997
-39.5454	135.95	6.03833
-39.5394	138.55	6.10669
-39.5344	141.25	6.17505
-39.52914	146.692	6.24341
-39.5218	153.013	6.31177
-39.5159	155.246	6.380127
-39.5112	158.5332	6.44849
-39.5061	161.457	6.51685
-39.4998	165.661	6.58521
-39.494	165.825	6.65356
-39.4878	164.592	6.72192
-39.4825	170.523	6.79028
-39.4778	170.958	6.85864
-39.4715	178.019	6.927002
-39.4665	182.067	6.99536
-39.4598	184.27	7.06372
-39.4551	187.34	7.13208
-39.4487	193.377	7.20044
-39.4435	196.067	7.2688
-39.4365	195.793	7.33716
-39.4315	198.456	7.40552
-39.4262	200.504	7.473877
-39.4212	200.609	7.54224
-39.4148	207.393	7.6106
-39.4089	213.0863	7.67896
-39.4034	213.949	7.74731
-39.3979	217.845	7.81567
-39.3931	223.5724	7.88403
-39.3865	228.525	7.95239
-39.3789	224.371	8.020752
-39.3749	231.645	8.08911
-39.3688	232.11	8.15747
-39.364	231.379	8.22583
-39.3575	235.161	8.29419
-39.352	241.131	8.36255
-39.34621	240.98	8.43091
-39.3405	245.02	8.49927
-39.3338	254.208	8.567627
-39.3288	255.907	8.63599
-39.3237	256.5	8.70435
-39.3169	259.092	8.77271
-39.31184	260.662	8.84106
-39.3062	261.395	8.90942
-39.3007	264.736	8.97778
-39.2947	267.88	9.04614
-39.2896	268.385	9.114502
-39.2831	272.355	9.18286
-39.2777	283.488	9.25122
-39.2713	284.668	9.31958
-39.2669	284.89	9.38794
-39.2602	289.2616	9.4563
-39.2557	290.0816	9.52466
-39.25	291.263	9.59302
-39.2436	293.8443	9.661377
-39.238	296.256	9.72974
-39.2329	294.293	9.7981
-39.22588	299.323	9.86646
-39.2201	307.25	9.93481
-39.2156	310.498	10.0032
-39.2095	313.247	10.0715
-39.2041	317.321	10.1399
-39.198	316.824	10.2083
-39.1937	319.159	10.2766
-39.1876	320.645	10.345
-39.1814	321.734	10.41333
-39.1758	321.326	10.4817
-39.17046	325.038	10.55
-39.1648	332.22	10.6184
-39.1581	334.188	10.6868
-39.1534	338.512	10.7551
-39.147	342.197	10.8235
-39.14212	344.609	10.8918
-39.1362	346.68	10.9602
-39.1307	345.5	11.0286
-39.1236	345.077	11.0969
-39.1185	346.806	11.1653
-39.1128	350.52	11.2336
-39.1063	354.546	11.302
-39.1019	357.14	11.3704
-39.0961	361.881	11.4387
-39.0898	365.309	11.50708
-39.0837	369.025	11.5754
-39.0779	369.493	11.6438
-39.0725	371.073	11.7122
-39.0669	368.779	11.7805
-39.0612	370.04	11.8489
-39.0556	373.0885	11.9172
-39.0511	375.6	11.9856
-39.04414	379.174	12.054
-39.0386	382.422	12.1223
-39.0332	384.178	12.1907
-39.0269	391.246	12.259
-39.0211	393.198	12.3274
-39.0153	390.686	12.3958
-39.0111	389.722	12.4641
-39.0046	390.555	12.5325
-38.99807	392.1152	12.60083
-38.9931	392.3092	12.6692
-38.9873	394.166	12.7375
-38.9812	400.4617	12.8059
-38.9753	400.919	12.8743
-38.9702	407.826	12.9426
-38.9653	409.686	13.011
-38.9589	407.522	13.0793
-38.9528	406.023	13.1477
-38.9474	409.82	13.2161
-38.94154	406.683	13.2844
-38.9355	405.952	13.3528
-38.9295	410.974	13.4211
-38.9234	411.401	13.4895
-38.919	414.951	13.5579
-38.9141	419.9126	13.6262
-38.9065	422.89	13.69458
-38.9021	417.697	13.7629
-38.89563	419.763	13.8313
-38.8906	421.212	13.8997
-38.8852	418.384	13.968
-38.8796	416.826	14.0364
-38.8735	419.215	14.1047
-38.868	418.342	14.1731
-38.8626	422.886	14.2415
-38.8572	426.702	14.3098
-38.8511	428.354	14.3782
-38.845	425.551	14.4465
-38.8379	426.751	14.5149
-38.8345	429.067	14.5833
-38.8279	423.3244	14.6516
-38.8217	423.844	14.72
-38.8158	424.209	14.78833
-38.812	424.136	14.8567
-38.8056	424.4548	14.925
-38.7999	429.1344	14.9934
-38.7936	431.077	15.0618
-38.7886	427.694	15.1301
-38.783	431.781	15.1985
-38.7775	433.397	15.2668
-38.7709	428.252	15.3352
-38.7654	426.114	15.4036
-38.7594	427.683	15.4719
-38.7534	425.497	15.5403
-38.7477	425.671	15.6086
-38.7421	428.9697	15.677
-38.7365	429.998	15.7454
-38.7304	428.241	15.8137
-38.7253	432.801	15.88208
-38.71994	434.529	15.9504
-38.7151	431.3847	16.0188
-38.7086	429.896	16.0872
-38.7035	427.821	16.1555
-38.6972	426.62	16.2239
-38.6918	425.361	16.2922
-38.68589	427.761	16.3606
-38.6792	425.069	16.429
-38.6758	425.594	16.4973
-38.6684	430.277	16.5657
-38.66135	431.411	16.634
-38.6566	429.319	16.7024
-38.6525	426.812	16.7708
-38.6456	426.107	16.8391
-38.6386	423.82	16.9075
-38.6336	421.945	16.97583
-38.6288	421.6178	17.0442
-38.6238	420.0885	17.1125
-38.6185	421.089	17.1809
-38.6107	426.293	17.2493
-38.6063	427.097	17.3176
-38.5997	425.655	17.386
-38.5938	425.761	17.4543
-38.5872	422.973	17.5227
-38.5834	423.21	17.5911
-38.5773	420.427	17.6594
-38.5714	418.464	17.7278
-38.5658	415.485	17.7961
-38.5592	418.995	17.8645
-38.55476	421.712	17.9329
-38.5483	421.726	18.0012
-38.54435	423.271	18.06958
-38.5379	423.097	18.1379
-38.5316	420.642	18.2063
-38.5258	421.117	18.2747
-38.5196	417.553	18.343
-38.5142	413.444	18.4114
-38.5096	412.5513	18.4797
-38.5023	415.79	18.5481
-38.497	415.576	18.6165
-38.493	417.2532	18.6848
-38.4872	420.1304	18.7532
-38.4806	418.34	18.8215
-38.475	420.224	18.8899
-38.4694	419.967	18.9583
-38.4634	415.384	19.0266
-38.4569	412.405	19.095
[...]
-38.0646	408.359	23.8118
-38.0618	403.327	23.85083
-38.0579	412.006	23.8899
-38.0543	403.474	23.929
-38.0516	406.584	23.968
-38.0472	413.441	24.00708
-38.0459	402.939	24.0461
-38.0416	409.487	24.0852
-38.0389	409.944	24.1243
-38.035	404.823	24.16333
-38.0321	413.2673	24.2024
-38.0286	409.438	24.2415
-38.02631	406.646	24.2805
-38.0217	413.22	24.31958
-38.01902	405.488	24.3586
-38.0153	410.337	24.3977
-38.0128	409.935	24.4368
-38.0097	405.217	24.47583
-38.006	412.386	24.5149
-38.0031	406.219	24.554
-38.0005	406.753	24.593
-37.9962	411.38	24.63208
-37.9929	403.768	24.6711
-37.9902	408.612	24.7102
-37.9866	411.052	24.7493
-37.9832	403.734	24.78833
-37.9803	409.433	24.8274
-37.9769	404.009	24.8665
-37.9735	408.248	24.9055
-37.969	407.82	24.94458
-37.96785	401.694	24.9836
-37.9642	409.865	25.0227
-37.96085	405.6	25.0618
-37.9579	403.748	25.10083
-37.9533	409.766	25.1399
-37.95079	403.595	25.179
-37.9476	405.699	25.218
-37.9447	411.763	25.25708
-37.941	401.692	25.2961
-37.9374	408.82	25.3352
-37.9347	408.831	25.3743
-37.9323	405.311	25.41333
-37.92675	409.673	25.4524
-37.9246	405.449	25.4915
-37.9215	405.668	25.5305
-37.9173	407.62	25.56958
-37.914	404.847	25.6086
-37.9117	407.682	25.6477
-37.908	406.646	25.6868
-37.9054	401.308	25.72583
-37.9024	404.586	25.7649
-37.8982	375.646	25.804
-37.8947	278.866	25.843
-37.8905	-36.861	25.88208
-37.8877	-48.22374	25.9211
-37.8851	-41.6798	25.9602
-37.8825	-42.2806	25.9993
-37.8774	-44.7224	26.03833
-37.8759	-41.8933	26.0774
-37.8722	-44.3981	26.1165
-37.8694	-42.87001	26.1555
-37.8661	-42.4553	26.19458
-37.8631	-47.8007	26.2336
-37.8599	-41.0802	26.2727
-37.8554	-44.3101	26.3118
-37.8535	-47.6512	26.35083
-37.8505	-37.5936	26.3899
-37.8474	-45.3692	26.429
-37.84407	-42.3796	26.468
-37.8395	-37.7947	26.50708
-37.8366	-45.6828	26.5461
-37.8325	-40.8768	26.5852
-37.8305	-39.1464	26.6243
-37.8263	-44.50127	26.66333
-37.8239	-39.3767	26.7024
-37.8208	-41.6274	26.7415
-37.817	-43.6711	26.7805
-37.8134	-38.3899	26.81958
-37.8103	-47.0719	26.8586
-37.8074	-40.87949	26.8977
-37.8037	-41.1123	26.9368
-37.8016	-45.5606	26.97583
-37.7973	-40.2522	27.0149
-37.7946	-44.8034	27.054
-37.7906	-43.5558	27.093
-37.788	-39.0138	27.13208
-37.785	-44.6819	27.1711
-37.7821	-43.8951	27.2102
-37.7779	-41.9376	27.2493
-37.7745	-46.5774	27.28833
-37.7714	-41.6746	27.3274
-37.76712	-44.5714	27.3665
-37.7654	-42.888	27.4055
-37.7608	-43.2791	27.44458
-37.7583	-46.6549	27.4836
-37.7553	-39.1158	27.5227
-37.7528	-42.7465	27.5618
-37.7488	-45.5859	27.60083
-37.74477	-38.3489	27.6399
-37.7416	-44.383	27.679
-37.7388	-45.84515	27.718
-37.73547	-38.12352	27.75708
-37.7318	-46.1824	27.7961
-37.7287	-39.7882	27.8352
-37.7259	-39.49379	27.8743
-37.7225	-45.0366	27.91333
-37.7198	-38.9982	27.9524
-37.71661	-43.4672	27.9915
-37.7128	-42.5004	28.0305
-37.71	-40.3519	28.06958
-37.7064	-45.5568	28.1086
-37.7028	-39.4186	28.1477
-37.6989	-40.5865	28.1868
-37.696	-47.3882	28.22583
-37.6922	-38.5744	28.2649
-37.6893	-44.9917	28.304
-37.6861	-45.8948	28.343
-37.6836	-41.0607	28.38208
-37.6799	-48.42886	28.4211
-37.6762	-44.3191	28.4602
-37.67181	-43.5296	28.4993
-37.6704	-46.24012	28.53833
-37.6661	-43.9064	28.5774
-37.6639	-44.3311	28.6165
-37.6605	-43.9336	28.6555
-37.6571	-41.292	28.69458
-37.6543	-47.6596	28.7336
-37.6508	-41.2353	28.7727
-37.6475	-42.6623	28.8118
-37.6446	-46.326	28.85083
-37.6412	-37.6664	28.8899
-37.6379	-47.3228	28.929
-37.6346	-43.17067	28.968
-37.6323	-39.1683	29.00708
-37.628	-46.3211	29.0461
-37.625	-43.2829	29.0852
-37.62252	-41.2097	29.1243
-37.6188	-46.3185	29.16333
-37.6147	-39.7386	29.2024
-37.61129	-44.2635	29.2415
-37.6091	-44.3916	29.2805
-37.6052	-38.7683	29.31958