Folder: Stress_Strain_Analysis_Tools/data/processed_data_files/tensile (part 13)

File: 0.254_hd_dimension_typeiv_4545_r(3).dat
MTS793|BTW|ENU|1|2|.|/|:|1|0|0|A

Data Header:			0.254_hd_dimension_typeiv_4545_r0			Time:	20.0217	s	4/13/2019 8:16:34 PM
Data Acquisition:	Timed
Station Name:	ft40.cfg
Test File Name:	monotonic_0.2540_typeiv_hd_4545_dimension.tst
Displacement	Force	Running Time
mm	N	s
-40.0348	-211.74	0.0258789
-40.0333	-216.938	0.0942383
-40.0252	-211.934	0.162598
-40.021	-206.097	0.230957
-40.0151	-198.4866	0.299316
-40.0097	-198.892	0.367676
-40.0033	-196.181	0.436035
-39.9982	-193.152	0.504395
-39.9928	-192.45	0.572754
-39.9868	-191.494	0.641113
-39.9812	-185.67	0.709473
-39.975	-183.699	0.777832
-39.9702	-182.346	0.846191
-39.9644	-174.655	0.914551
-39.9568	-168.945	0.98291
-39.953	-164.716	1.05127
-39.9467	-164.72	1.11963
-39.9403	-162.341	1.18799
-39.9345	-160.526	1.25635
-39.9301	-159.173	1.324707
-39.924	-155.891	1.39307
-39.918	-154.688	1.46143
-39.9133	-152.476	1.52979
-39.9083	-146.638	1.59814
-39.901	-139.158	1.6665
-39.8969	-135.453	1.73486
-39.8902	-132.0591	1.80322
-39.8835	-127.12	1.871582
-39.8786	-126.746	1.93994
-39.8724	-127.062	2.0083
-39.8661	-124.107	2.07666
-39.861	-124.458	2.14502
-39.8548	-119.022	2.21338
-39.8493	-114.709	2.28174
-39.8446	-109.873	2.3501
-39.8384	-104.205	2.418457
-39.8322	-98.3926	2.48682
-39.8261	-96.0839	2.55518
-39.8217	-95.5164	2.62354
-39.8168	-93.6606	2.69189
-39.8104	-92.2889	2.76025
-39.8053	-92.4905	2.82861
-39.7986	-90.06205	2.89697
-39.7924	-82.1018	2.965332
-39.7876	-78.3528	3.03369
-39.7823	-72.5271	3.10205
-39.7755	-67.3269	3.17041
-39.7705	-65.9375	3.23877
-39.766	-62.7459	3.30713
-39.7581	-60.1011	3.37549
-39.752	-58.5975	3.44385
-39.7482	-62.16647	3.512207
-39.7427	-59.44136	3.58057
-39.7363	-51.1077	3.64893
-39.7303	-46.7854	3.71729
-39.7245	-45.85294	3.78564
-39.7193	-37.972	3.854
-39.71357	-33.4819	3.92236
-39.7071	-31.79	3.99072
-39.7014	-28.1078	4.059082
-39.6964	-26.7385	4.12744
-39.6911	-29.3222	4.1958
-39.6848	-28.5245	4.26416
-39.6798	-20.6971	4.33252
-39.67416	-16.6761	4.40088
-39.6665	-15.7222	4.46924
-39.66256	-9.26563	4.5376
-39.656	-3.441	4.605957
-39.6508	0.630915	4.67432
-39.6445	2.84446	4.74268
-39.6396	5.69168	4.81104
-39.6352	4.383368	4.87939
-39.6284	5.38936	4.94775
-39.6215	9.41867	5.01611
-39.6169	13.5256	5.08447
-39.6107	15.3411	5.152832
-39.6048	21.752	5.22119
-39.5998	25.9983	5.28955
-39.5943	32.0934	5.35791
-39.5879	34.09679	5.42627
-39.5822	35.7954	5.49463
-39.578	35.4368	5.56299
-39.5701	37.2685	5.63135
-39.5655	42.3591	5.699707
-39.55925	42.8884	5.76807
-39.5534	46.915	5.83643
-39.5493	51.5878	5.90479
-39.5433	55.0097	5.97314
-39.5372	60.81176	6.0415
-39.5312	65.0175	6.10986
-39.5255	67.4155	6.17822
-39.5191	67.6452	6.246582
-39.5148	71.4126	6.31494
-39.50853	75.0689	6.3833
-39.5022	74.09655	6.45166
-39.49614	76.1074	6.52002
-39.4904	82.3078	6.58838
-39.4856	85.89888	6.65674
-39.4807	91.8314	6.7251
-39.4744	97.589	6.793457
-39.469	97.7219	6.86182
-39.4633	98.3394	6.93018
-39.45752	101.712	6.99854
-39.4514	108.792	7.06689
-39.4466	105.892	7.13525
-39.4405	108.534	7.20361
-39.4337	112.834	7.27197
-39.4289	116.097	7.340332
-39.4237	119.833	7.40869
-39.417	128.325	7.47705
-39.4115	130.075	7.54541
-39.4068	130.112	7.61377
-39.4012	133.7	7.68213
-39.3937	139.653	7.75049
-39.3886	138.377	7.81885
-39.384	138.735	7.887207
-39.37674	143.453	7.95557
-39.3715	145.176	8.02393
-39.36631	149.5134	8.09229
-39.3601	154.955	8.16064
-39.35392	159.997	8.229
-39.3485	160.365	8.29736
-39.344	165.861	8.36572
-39.3372	170.7081	8.434082
-39.3313	169.463	8.50244
-39.3263	169.768	8.5708
-39.3214	173.262	8.63916
-39.314	174.384	8.70752
-39.30788	178.707	8.77588
-39.3032	183.112	8.84424
-39.2961	185.688	8.9126
-39.2935	189.7852	8.980957
-39.2871	195.279	9.04932
-39.2794	199.378	9.11768
-39.2741	200.284	9.18604
-39.2703	201.332	9.25439
-39.2643	202.1496	9.32275
-39.2578	204.461	9.39111
-39.2522	209.369	9.45947
-39.2466	211.696	9.527832
-39.2414	212.929	9.59619
-39.2345	217.476	9.66455
-39.2295	225.142	9.73291
-39.224	228.039	9.80127
-39.2178	230.15	9.86963
-39.2117	233.199	9.93799
-39.2066	232.79	10.0063
-39.2001	234.633	10.0747
-39.19482	237.845	10.1431
-39.1895	239.902	10.2114
-39.18335	239.909	10.2798
-39.1768	244.191	10.3481
-39.1727	254.005	10.4165
-39.167	258.565	10.4849
-39.1608	259.231	10.5532
-39.1549	261.54	10.6216
-39.15	263.609	10.6899
-39.1436	261.686	10.7583
-39.1383	265.244	10.82666
-39.1318	268.766	10.89502
-39.1275	267.86	10.9634
-39.12043	270.701	11.0317
-39.1146	279.542	11.1001
-39.11	286.283	11.1685
-39.10479	288.076	11.2368
-39.0973	291.636	11.3052
-39.0931	292.545	11.3735
-39.0868	291.989	11.4419
-39.0809	295.016	11.5103
-39.0746	296.861	11.5786
-39.0691	295.905	11.647
-39.0653	298.67	11.7153
-39.0581	306.663	11.7837
-39.05349	311.756	11.8521
-39.0466	313.081	11.92041
-39.0424	317.294	11.98877
-39.03532	321.181	12.0571
-39.0296	320.469	12.1255
-39.02359	319.746	12.1938
-39.01823	320.846	12.2622
-39.0131	322.031	12.3306
-39.0066	322.783	12.3989
-39.0021	331.677	12.4673
-38.9961	335.7128	12.5356
-38.9888	339.127	12.604
-38.9845	343.201	12.6724
-38.9792	344.548	12.7407
-38.9733	349.186	12.8091
-38.9678	349.46	12.8774
-38.9624	349.554	12.9458
-38.9564	348.259	13.01416
-38.9497	349.954	13.08252
-38.9437	354.682	13.1509
-38.9388	358.8291	13.2192
-38.93351	362.401	13.2876
-38.9273	366.464	13.356
-38.922	368.377	13.4243
-38.915	372.952	13.4927
-38.9109	374.201	13.561
-38.9044	373.023	13.6294
-38.8982	371.601	13.6978
-38.8931	373.835	13.7661
-38.8868	379.343	13.8345
-38.8817	381.1488	13.9028
-38.8766	384.075	13.9712
-38.87	389.928	14.0396
-38.8656	391.179	14.10791
-38.8586	393.981	14.17627
-38.8536	399.095	14.2446
-38.8481	398.9408	14.313
-38.8436	392.383	14.3813
-38.8362	394.982	14.4497
-38.8303	402.504	14.5181
-38.8247	401.55	14.5864
-38.8196	403.767	14.6548
-38.8142	410.333	14.7231
-38.8069	412.523	14.7915
-38.8017	415.241	14.8599
-38.79697	417.976	14.9282
-38.79092	420.9328	14.9966
-38.7851	415.844	15.0649
-38.7802	415.94	15.1333
-38.7729	421.4465	15.20166
-38.7672	421.198	15.27002
-38.7633	421.964	15.3384
-38.757	426.233	15.4067
-38.7507	429.401	15.4751
-38.7451	433.044	15.5435
-38.7396	435.231	15.6118
-38.7339	437.138	15.6802
-38.7276	435.857	15.7485
-38.7225	432.475	15.8169
-38.7164	438.697	15.8853
-38.7109	437.5816	15.9536
-38.7046	438.408	16.022
-38.7006	440.718	16.0903
-38.6937	443.916	16.1587
-38.6875	448.173	16.2271
-38.6826	449.347	16.29541
-38.6766	451.406	16.36377
-38.6717	449.742	16.4321
-38.6647	448.78	16.5005
-38.6604	452.412	16.5688
-38.6544	449.8324	16.6372
-38.6481	450.446	16.7056
-38.6414	452.436	16.7739
-38.63747	454.887	16.8423
-38.6316	457.747	16.9106
-38.6249	461.724	16.979
-38.6195	461.2005	17.0474
-38.61367	459.628	17.1157
-38.609	460.4483	17.1841
-38.6028	463.222	17.2524
-38.5966	459.522	17.3208
-38.5908	458.263	17.38916
-38.5849	461.481	17.45752
-38.58	460.34	17.5259
-38.5743	462.492	17.5942
-38.5683	467.4292	17.6626
-38.5632	468.511	17.731
-38.5571	464.2674	17.7993
-38.5518	466.463	17.8677
-38.5466	470.388	17.936
-38.5399	466.3497	18.0044
-38.5344	462.9415	18.0728
-38.5289	463.822	18.1411
-38.5234	463.009	18.2095
-38.5176	464.53	18.2778
-38.5114	466.668	18.3462
-38.50531	469.96	18.4146
-38.5	469.347	18.48291
-38.4946	468.564	18.55127
-38.4885	472.552	18.6196
-38.4833	469.515	18.688
-38.478	465.586	18.7563
-38.4715	466.949	18.8247
-38.4658	465.214	18.8931
-38.46	465.942	18.9614
-38.4537	467.927	19.0298
[...]
-36.5906	453.254	41.3931
-36.5887	459.0448	41.4126
-36.5872	461.0098	41.4321
-36.58564	453.088	41.45166
-36.5842	456.387	41.4712
-36.584	459.967	41.4907
-36.5811	453.108	41.5103
-36.5789	454.755	41.5298
-36.5783	460.311	41.5493
-36.5764	454.634	41.5688
-36.5757	456.318	41.5884
-36.5727	457.998	41.60791
-36.5712	456.652	41.6274
-36.56913	451.507	41.647
-36.5686	458.099	41.6665
-36.5681	457.949	41.686
-36.5647	452.949	41.7056
-36.5647	452.5751	41.7251
-36.5621	459.389	41.7446
-36.5602	451.966	41.76416
-36.5585	454.0975	41.7837
-36.5569	458.014	41.8032
-36.5556	453.856	41.8228
-36.5529	450.332	41.8423
-36.55246	459.319	41.8618
-36.5503	452.766	41.8813
-36.5491	450.614	41.9009
-36.5476	456.221	41.92041
-36.544	452.544	41.9399
-36.5445	443.061	41.9595
-36.5421	453.511	41.979
-36.5404	448.058	41.9985
-36.53857	441.222	42.0181
-36.5337	-76.5289	42.0376
-36.5335	-19.9148	42.0571
-36.5318	-48.4225	42.07666
-36.5313	-37.6868	42.0962
-36.5293	-38.50515	42.1157
-36.5281	-44.21619	42.1353
-36.5264	-42.6019	42.1548
-36.5249	-38.5487	42.1743
-36.5229	-43.1309	42.1938
-36.5229	-43.0533	42.2134
-36.5203	-39.3966	42.23291
-36.5189	-42.0869	42.2524
-36.51807	-43.24192	42.272
-36.5157	-40.4457	42.2915
-36.5143	-41.47361	42.311
-36.5121	-44.5081	42.3306
-36.5107	-41.0255	42.3501
-36.5093	-38.4793	42.3696
-36.50745	-42.0876	42.38916
-36.5056	-44.5455	42.4087
-36.50423	-37.629	42.4282
-36.5019	-42.3723	42.4478
-36.5016	-40.9076	42.4673
-36.4996	-37.4924	42.4868
-36.49818	-40.6282	42.5063
-36.4959	-46.1972	42.5259
-36.4948	-35.9181	42.54541
-36.4922	-40.15646	42.5649
-36.4906	-44.557	42.5845
-36.4896	-39.0613	42.604
-36.4881	-37.8447	42.6235
-36.4855	-46.2012	42.6431
-36.485	-39.3686	42.6626
-36.4832	-39.5896	42.6821
-36.4809	-43.4915	42.70166
-36.4805	-41.4674	42.7212
-36.4782	-37.0901	42.7407
-36.4759	-47.1229	42.7603
-36.4757	-43.4727	42.7798
-36.4739	-39.6376	42.7993
-36.4724	-41.9724	42.8188
-36.47044	-43.6918	42.8384
-36.4687	-39.1966	42.85791
-36.4673	-43.1454	42.8774
-36.4643	-43.8435	42.897
-36.4626	-38.4924	42.9165
-36.46233	-40.2932	42.936
-36.4608	-43.3122	42.9556
-36.4593	-41.94857	42.9751
-36.4563	-38.08202	42.9946
-36.4552	-43.404	43.01416
-36.4538	-44.1363	43.0337
-36.4525	-38.8685	43.0532
-36.4502	-41.5046	43.0728
-36.4502	-45.488	43.0923
-36.4474	-39.1723	43.1118
-36.4458	-43.1357	43.1313
-36.4447	-43.8393	43.1509
-36.44191	-39.6928	43.17041
-36.44091	-37.7907	43.1899
-36.44	-47.7909	43.2095
-36.4371	-38.5123	43.229
-36.4358	-39.6564	43.2485
-36.4336	-43.7555	43.2681
-36.4318	-42.7471	43.2876
-36.4315	-38.1336	43.3071
-36.4304	-47.2578	43.32666
-36.4277	-40.403	43.3462
-36.4267	-40.0298	43.3657
-36.42474	-43.0104	43.3853
-36.4233	-43.1537	43.4048
-36.4211	-38.67942	43.4243
-36.419	-43.054	43.4438
-36.4179	-43.3616	43.4634
-36.4162	-39.1984	43.48291
-36.4142	-39.9265	43.5024
-36.41349	-43.463	43.522
-36.4113	-40.1968	43.5415
-36.4102	-42.3993	43.561
-36.4084	-43.8953	43.5806
-36.4073	-42.0934	43.6001
-36.4052	-39.8489	43.6196
-36.4034	-42.7286	43.63916
-36.401	-43.3717	43.6587
-36.4009	-37.2721	43.6782
-36.3989	-42.1763	43.6978
-36.3982	-43.1088	43.7173
-36.3948	-38.8253	43.7368
-36.3932	-41.5226	43.7563
-36.3914	-44.6064	43.7759
-36.3904	-36.4059	43.79541
-36.3884	-41.4725	43.8149
-36.3866	-44.4091	43.8345
-36.3854	-39.0874	43.854
-36.3841	-36.17561	43.8735
-36.3825	-47.3838	43.8931
-36.3809	-40.0194	43.9126
-36.38	-39.0869	43.9321
-36.3765	-42.0341	43.95166
-36.3769	-43.7583	43.9712
-36.37339	-37.7799	43.9907
-36.3713	-46.415	44.0103
-36.3713	-41.0512	44.0298
-36.369	-38.5773	44.0493
-36.3676	-42.2735	44.0688
-36.3664	-44.5657	44.0884
-36.3649	-38.1345	44.10791
-36.3622	-42.0282	44.1274

File: 0.254_hd_dimension_typeiv_4545_r(4).dat
MTS793|BTW|ENU|1|2|.|/|:|1|0|0|A

Data Header:			0.254_hd_dimension_typeiv_4545_r0			Time:	20.0176	s	4/13/2019 8:19:56 PM
Data Acquisition:	Timed
Station Name:	ft40.cfg
Test File Name:	monotonic_0.2540_typeiv_hd_4545_dimension.tst
Displacement	Force	Running Time
mm	N	s
-40.0353	-313.19	0.0227051
-40.0338	-313.011	0.0910645
-40.0284	-308.31	0.159424
-40.0219	-306.017	0.2277832
-40.0168	-306.115	0.296143
-40.0113	-301.648	0.364502
-40.0052	-293.849	0.432861
-39.9999	-292.193	0.5012207
-39.9947	-292.178	0.56958
-39.9884	-287.235	0.637939
-39.9823	-289.5488	0.706299
-39.9764	-286.824	0.7746582
-39.9714	-284.461	0.843018
-39.9655	-282.298	0.911377
-39.9617	-282.776	0.979736
-39.954	-277.722	1.0481
-39.9485	-269.186	1.11646
-39.9437	-267.908	1.18481
-39.9372	-264.104	1.25317
-39.9307	-261.634	1.32153
-39.9258	-262.148	1.38989
-39.92	-260.564	1.458252
-39.9141	-259.422	1.52661
-39.9078	-256.692	1.59497
-39.9025	-255.824	1.66333
-39.89854	-252.7639	1.73169
-39.8908	-244.219	1.80005
-39.886	-241.126	1.86841
-39.8802	-237.972	1.93677
-39.8757	-236.009	2.005127
-39.8693	-234.439	2.07349
-39.8625	-230.53	2.14185
-39.8574	-229.472	2.21021
-39.8517	-229.432	2.27856
-39.845	-228.224	2.34692
-39.8398	-225.164	2.41528
-39.8346	-217.714	2.48364
-39.83012	-215.496	2.552002
-39.8234	-209.523	2.62036
-39.8173	-206.412	2.68872
-39.8129	-204.558	2.75708
-39.8068	-200.983	2.82544
-39.8006	-199.736	2.8938
-39.7948	-200.8185	2.96216
-39.7893	-200.602	3.03052
-39.7829	-195.323	3.098877
-39.7778	-189.106	3.16724
-39.7718	-187.4	3.2356
-39.7664	-183.066	3.30396
-39.7605	-176.962	3.37231
-39.7552	-176.816	3.44067
-39.7492	-170.5	3.50903
-39.7436	-167.794	3.57739
-39.73761	-168.662	3.645752
-39.7314	-171.907	3.71411
-39.7262	-165.604	3.78247
-39.7212	-161.4471	3.85083
-39.7156	-159.506	3.91919
-39.7089	-154.058	3.98755
-39.7018	-148.6873	4.05591
-39.6987	-146.3531	4.12427
-39.6918	-141.784	4.192627
-39.6856	-138.591	4.26099
-39.6818	-136.9082	4.32935
-39.6763	-139.623	4.39771
-39.6697	-136.37	4.46606
-39.6639	-128.942	4.53442
-39.6587	-130.075	4.60278
-39.65218	-126.0463	4.67114
-39.6464	-118.595	4.739502
-39.6398	-115.357	4.80786
-39.6358	-111.328	4.87622
-39.6299	-106.478	4.94458
-39.6242	-106.8415	5.01294
-39.61842	-106.3327	5.0813
-39.6133	-105.75	5.14966
-39.6075	-99.4246	5.21802
-39.6009	-99.94503	5.286377
-39.5942	-95.271	5.35474
-39.5904	-91.0258	5.4231
-39.583	-86.2886	5.49146
-39.5787	-79.4239	5.55981
-39.5738	-75.6113	5.62817
-39.56757	-74.328	5.69653
-39.5624	-74.4315	5.76489
-39.5541	-71.66497	5.833252
-39.5494	-68.7815	5.90161
-39.544	-66.5173	5.96997
-39.5393	-63.99876	6.03833
-39.53352	-59.5589	6.10669
-39.5279	-56.9233	6.17505
-39.5218	-48.9206	6.24341
-39.5166	-44.553	6.31177
-39.5085	-46.2698	6.380127
-39.5038	-44.05917	6.44849
-39.4993	-39.3801	6.51685
-39.4928	-36.5555	6.58521
-39.4873	-38.1392	6.65356
-39.4818	-34.8451	6.72192
-39.47636	-29.8728	6.79028
-39.4695	-27.9859	6.85864
-39.4638	-21.3151	6.927002
-39.4591	-15.9929	6.99536
-39.4519	-15.0873	7.06372
-39.446	-13.6334	7.13208
-39.4421	-9.1675	7.20044
-39.4359	-5.31145	7.2688
-39.4296	-8.34061	7.33716
-39.4243	-5.5995	7.40552
-39.4196	0.828223	7.473877
-39.4125	1.27152	7.54224
-39.4082	8.48606	7.6106
-39.402	15.1502	7.67896
-39.396	16.4493	7.74731
-39.3905	17.8309	7.81567
-39.3843	22.55344	7.88403
-39.3782	27.6214	7.95239
-39.3727	25.5613	8.020752
-39.367	25.64188	8.08911
-39.3629	31.1175	8.15747
-39.3557	33.1824	8.22583
-39.3516	36.3492	8.29419
-39.3447	42.5605	8.36255
-39.3388	47.2578	8.43091
-39.3335	48.2822	8.49927
-39.3276	53.3314	8.567627
-39.3216	57.72879	8.63599
-39.3161	58.3673	8.70435
-39.3101	59.4437	8.77271
-39.3054	61.177	8.84106
-39.2985	64.5808	8.90942
-39.2929	69.0039	8.97778
-39.2864	74.1161	9.04614
-39.2819	76.5633	9.114502
-39.2756	78.1632	9.18286
-39.2701	84.3612	9.25122
-39.2656	88.5079	9.31958
-39.259	89.0648	9.38794
-39.2537	93.2648	9.4563
-39.24852	92.1161	9.52466
-39.2426	94.6033	9.59302
-39.2354	99.0705	9.661377
-39.231	104.207	9.72974
-39.2267	104.726	9.7981
-39.2187	109.768	9.86646
-39.2132	114.659	9.93481
-39.209	120.705	10.0032
-39.203	121.276	10.0715
-39.1967	123.122	10.1399
-39.1917	124.893	10.2083
-39.1855	124.565	10.2766
-39.1804	128.102	10.345
-39.1743	132.644	10.41333
-39.1683	134.034	10.4817
-39.1636	137.94	10.55
-39.1586	146.157	10.6184
-39.1518	151.438	10.6868
-39.145	150.741	10.7551
-39.1405	154.084	10.8235
-39.13475	156.789	10.8918
-39.1285	154.892	10.9602
-39.12355	158.758	11.0286
-39.1173	162.515	11.0969
-39.1119	162.7637	11.1653
-39.105	165.502	11.2336
-39.1009	173.779	11.302
-39.0938	180.773	11.3704
-39.0894	180.5372	11.4387
-39.0828	184.224	11.50708
-39.0775	187.353	11.5754
-39.0713	187.251	11.6438
-39.0659	187.901	11.7122
-39.0604	191.489	11.7805
-39.0543	191.083	11.8489
-39.0493	193.714	11.9172
-39.043	200.532	11.9856
-39.03907	207.618	12.054
-39.0318	210.3954	12.1223
-39.0254	215.065	12.1907
-39.0217	215.621	12.259
-39.0147	218.451	12.3274
-39.0089	219.0074	12.3958
-39.0032	220.551	12.4641
-38.9988	221.735	12.5325
-38.9913	223.782	12.60083
-38.9867	229.044	12.6692
-38.9795	235.863	12.7375
-38.9744	238.434	12.8059
-38.9684	243.583	12.8743
-38.96368	243.102	12.9426
-38.9576	247.2307	13.011
-38.9516	249.043	13.0793
-38.9458	251.452	13.1477
-38.94186	250.301	13.2161
-38.9359	250.282	13.2844
-38.9293	258.035	13.3528
-38.9245	261.132	13.4211
-38.9183	264.56	13.4895
-38.9127	270.412	13.5579
-38.9071	275.61	13.6262
-38.9017	274.3967	13.69458
-38.8965	280.371	13.7629
-38.8892	281.341	13.8313
-38.88409	279.567	13.8997
-38.8778	278.709	13.968
-38.8725	283.91	14.0364
-38.8663	289.506	14.1047
-38.8616	291.041	14.1731
-38.8542	296.665	14.2415
-38.8494	300.726	14.3098
-38.8442	303.28	14.3782
-38.8386	306.481	14.4465
-38.8323	309.018	14.5149
-38.8265	306.35	14.5833
-38.8214	304.525	14.6516
-38.8158	309.808	14.72
-38.8097	315.744	14.78833
-38.8037	316.19	14.8567
-38.7984	318.996	14.925
-38.7925	327.227	14.9934
-38.7877	329.69	15.0618
-38.7814	333.083	15.1301
-38.7756	335.869	15.1985
-38.7706	333.076	15.2668
-38.7645	332.692	15.3352
-38.7582	335.879	15.4036
-38.7531	339.17	15.4719
-38.74712	339.964	15.5403
-38.7415	344.531	15.6086
-38.7365	350.977	15.677
-38.7305	353.669	15.7454
-38.7242	357.3876	15.8137
-38.7186	359.996	15.88208
-38.713	360.013	15.9504
-38.7076	358.316	16.0188
-38.7017	361.693	16.0872
-38.6962	363.1886	16.1555
-38.689	363.116	16.2239
-38.684	368.155	16.2922
-38.6785	371.601	16.3606
-38.6722	376.481	16.429
-38.66803	382.729	16.4973
-38.6621	384.292	16.5657
-38.6546	382.896	16.634
-38.6502	383.1647	16.7024
-38.6451	387.05	16.7708
-38.6382	386.79	16.8391
-38.6329	386.309	16.9075
-38.6278	388.9241	16.97583
-38.62281	392.2749	17.0442
-38.6169	396.529	17.1125
-38.6107	402.485	17.1809
-38.6048	407.029	17.2493
-38.59866	403.613	17.3176
-38.5928	404.18	17.386
-38.5882	410.188	17.4543
-38.5833	411.43	17.5227
-38.5755	407.842	17.5911
-38.5715	410.1575	17.6594
-38.5656	414.6593	17.7278
-38.55941	414.947	17.7961
-38.5544	422.68	17.8645
-38.5484	426.394	17.9329
-38.5418	425.835	18.0012
-38.5364	426.422	18.06958
-38.5314	429.9086	18.1379
-38.5249	430.1665	18.2063
-38.5196	426.696	18.2747
-38.51413	428.537	18.343
-38.5076	431.384	18.4114
-38.502	432.706	18.4797
-38.4965	436.736	18.5481
-38.4922	441.171	18.6165
-38.4848	441.725	18.6848
-38.48	442.973	18.7532
-38.4733	446.184	18.8215
-38.46838	447.618	18.8899
[...]
-36.3721	461.9679	44.0461
-36.3682	463.333	44.0852
-36.3661	467.228	44.1243
-36.3626	459.351	44.16333
-36.3588	465.154	44.2024
-36.3553	461.703	44.2415
-36.3522	457.822	44.2805
-36.3491	465.464	44.31958
-36.3465	460.2453	44.3586
-36.3418	458.354	44.3977
-36.3388	464.983	44.4368
-36.3353	460.04	44.47583
-36.333	459.168	44.5149
-36.3296	462.953	44.554
-36.3248	458.63	44.593
-36.3235	463.285	44.63208
-36.319	461.024	44.6711
-36.3163	460.499	44.7102
-36.3132	463.442	44.7493
-36.3099	458.503	44.78833
-36.3053	463.229	44.8274
-36.3034	460.127	44.8665
-36.2992	458.521	44.9055
-36.2971	464.344	44.94458
-36.2935	459.984	44.9836
-36.2903	461.034	45.0227
-36.2879	465.433	45.0618
-36.2834	456.961	45.10083
-36.2816	463.116	45.1399
-36.27726	464.74	45.179
-36.273	458.458	45.218
-36.2724	465.342	45.25708
-36.2684	460.316	45.2961
-36.2653	460.867	45.3352
-36.261	463.772	45.3743
-36.257	456.726	45.41333
-36.2552	464.364	45.4524
-36.251	461.712	45.4915
-36.2482	457.7002	45.5305
-36.2435	463.7063	45.56958
-36.2419	459.535	45.6086
-36.2387	455.412	45.6477
-36.2361	463.014	45.6868
-36.2316	454.428	45.72583
-36.2289	457.053	45.7649
-36.2254	460.746	45.804
-36.2217	454.226	45.843
-36.2179	459.162	45.88208
-36.2158	454.04	45.9211
-36.21199	456.8855	45.9602
-36.2096	456.022	45.9993
-36.2058	454.502	46.03833
-36.2016	457.386	46.0774
-36.1981	452.412	46.1165
-36.1958	449.181	46.1555
-36.1889	-22.70746	46.19458
-36.1885	-39.9991	46.2336
-36.1858	-41.6279	46.2727
-36.1827	-38.8402	46.3118
-36.1801	-49.2415	46.35083
-36.1758	-40.915	46.3899
-36.17244	-40.3986	46.429
-36.1691	-46.5195	46.468
-36.1665	-37.6672	46.50708
-36.1628	-42.4266	46.5461
-36.1593	-41.55872	46.5852
-36.1561	-41.5797	46.6243
-36.1535	-43.332	46.66333
-36.14967	-39.8223	46.7024
-36.14785	-40.0318	46.7415
-36.1446	-43.3438	46.7805
-36.14098	-37.2145	46.81958
-36.1369	-43.5354	46.8586
-36.1343	-43.6042	46.8977
-36.131	-37.8604	46.9368
-36.12767	-47.8707	46.97583
-36.1242	-40.6615	47.0149
-36.1216	-41.8707	47.054
-36.1171	-46.5195	47.093
-36.1152	-41.6457	47.13208
-36.11216	-44.7359	47.1711
-36.1078	-44.1519	47.2102
-36.1054	-43.2936	47.2493
-36.1026	-46.8868	47.28833
-36.0981	-40.971	47.3274
-36.0953	-42.7392	47.3665
-36.0905	-46.991	47.4055
-36.08852	-38.0914	47.44458
-36.0835	-46.9436	47.4836
-36.0814	-45.1514	47.5227
-36.079	-39.0604	47.5618
-36.0764	-49.9091	47.60083
-36.072	-40.4829	47.6399
-36.0689	-40.45126	47.679
-36.0664	-48.9163	47.718
-36.0628	-40.9282	47.75708
-36.0588	-44.2543	47.7961
-36.0552	-45.6273	47.8352
-36.0524	-38.7608	47.8743
-36.0491	-44.8094	47.91333
-36.046	-41.51083	47.9524
-36.0434	-38.2932	47.9915
-36.03994	-45.5428	48.0305
-36.0362	-36.7062	48.06958
-36.0318	-43.447	48.1086
-36.0287	-43.48772	48.1477
-36.0262	-37.5051	48.1868
-36.0241	-44.6505	48.22583
-36.0196	-40.9068	48.2649
-36.0175	-41.6608	48.304
-36.0147	-45.4488	48.343
-36.0091	-41.6311	48.38208
-36.0066	-43.0854	48.4211
-36.0033	-44.19648	48.4602
-36.00127	-42.3168	48.4993
-35.9969	-45.4364	48.53833
-35.994	-43.4344	48.5774
-35.9912	-41.83522	48.6165
-35.9873	-46.9639	48.6555
-35.9835	-38.7088	48.69458
-35.9801	-48.2195	48.7336
-35.978	-43.7372	48.7727
-35.9747	-39.3842	48.8118
-35.9707	-47.4379	48.85083
-35.9678	-41.2207	48.8899
-35.9643	-42.5075	48.929
-35.9608	-47.9811	48.968
-35.9577	-39.91008	49.00708
-35.9544	-43.08139	49.0461
-35.95208	-45.6334	49.0852
-35.9484	-39.015	49.1243
-35.945	-45.0754	49.16333
-35.9417	-43.4912	49.2024
-35.9385	-41.7678	49.2415
-35.9353	-45.6241	49.2805
-35.9327	-39.19928	49.31958
-35.9287	-44.75219	49.3586
-35.9254	-40.88353	49.3977
-35.92128	-38.5675	49.4368
-35.9193	-45.061	49.47583
-35.9156	-41.9939	49.5149
-35.9141	-44.4178	49.5247